Folder: Modena/ITO_Radiator (part 4)

File: XPS--12_1-C1s.txt
# Transition                      C 1s
# Notes
# Creation Comment
# Energy Mode                     KE
# Start Energy in eV              957.6
# End Energy in eV                983.6
# Energy Step in eV               0.1
# Number Of Sweeps                15
# Dwell Time per Sweep in s       0.3
# Analyser Mode                   CAE
# Pass Energy in eV/Retard Ratio  25
# Magnification                   high
# Divide Voltages By 10           off
# Excitation Source               Mg Ka 1253.6 eV normal
# Excitation Energy in eV         1253.6
# Analyser Workfunction in eV     4.5
# Entrance Slit                   6 x 12 mm
# Exit Slit                       5 x 11 mm
#
#
# Kinetic Energy in eV         Counts
# --------------------         ------
957.600                    22606
957.700                    22933.5
957.800                    22551.5
957.900                    22757
958.000                    22602.5
958.100                    22528.8
958.200                    22724.8
958.300                    22557.5
958.400                    22740
958.500                    22716.8
958.600                    22548.5
958.700                    22410
958.800                    22311
958.900                    22632
959.000                    22576
959.100                    22509.2
959.200                    22599.2
959.300                    22524
959.400                    22711.8
959.500                    22754.8
959.600                    22808.2
959.700                    22711.8
959.800                    22659.2
959.900                    22635.5
960.000                    22612.2
960.100                    22480
960.200                    22736.2
960.300                    22678.8
960.400                    22627.2
960.500                    22681
960.600                    22525.2
960.700                    22788.8
960.800                    22796.8
960.900                    22730.5
961.000                    22725.5
961.100                    22648.2
961.200                    22728.2
961.300                    22535.2
961.400                    22670.2
961.500                    22882.5
961.600                    22600.8
961.700                    22766
961.800                    22754.2
961.900                    22769.8
962.000                    22714.5
962.100                    22788
962.200                    22709.2
962.300                    22927.5
962.400                    22784.2
962.500                    22950
962.600                    22831.5
962.700                    22810.2
962.800                    22827.8
962.900                    23000.8
963.000                    23018
963.100                    23011
963.200                    23005.2
963.300                    23036.8
963.400                    22770.2
963.500                    22970.5
963.600                    23045.2
963.700                    23147.5
963.800                    23083
963.900                    23273.5
964.000                    23299.8
964.100                    23318.5
964.200                    23382.5
964.300                    23373
964.400                    23459.5
964.500                    23356.2
964.600                    23227.2
964.700                    23598.2
964.800                    23370.8
964.900                    23111.2
965.000                    23078
965.100                    23015.2
965.200                    23297.8
965.300                    23302.2
965.400                    23228.5
965.500                    23317.2
965.600                    23077
965.700                    23063.5
965.800                    23179.5
965.900                    23154.8
966.000                    23390.5
966.100                    23393.2
966.200                    23408.5
966.300                    23825.2
966.400                    23672.8
966.500                    23682.5
966.600                    23809
966.700                    24141.8
966.800                    24237
966.900                    24282
967.000                    24928.8
967.100                    25035.8
967.200                    25011.2
967.300                    25682.8
967.400                    26208.8
967.500                    26901.2
967.600                    27208.8
967.700                    27587.2
967.800                    28121.2
967.900                    28421.5
968.000                    28893
968.100                    29211
968.200                    29658.2
968.300                    29915.2
968.400                    29864
968.500                    29858
968.600                    29598
968.700                    29576.5
968.800                    29142.5
968.900                    28873.8
969.000                    28054.2
969.100                    27569.5
969.200                    26880.2
969.300                    26435.2
969.400                    25843.5
969.500                    25320.2
969.600                    24891.8
969.700                    24619
969.800                    24011.2
969.900                    23659.8
970.000                    23673.5
970.100                    23354.5
970.200                    23382.2
970.300                    22761.8
970.400                    22460.5
970.500                    22321
970.600                    22379
970.700                    22302
970.800                    22297
970.900                    22103.2
971.000                    22086.2
971.100                    22124
971.200                    21890.5
971.300                    22095.8
971.400                    21984.2
971.500                    21750
971.600                    21784
971.700                    21834.2
971.800                    21893
971.900                    21807.5
972.000                    22108
972.100                    22006
972.200                    22020.2
972.300                    21952
972.400                    21863.8
972.500                    21731.2
972.600                    21794.2
972.700                    22032.2
972.800                    21749.5
972.900                    21869
973.000                    21959.5
973.100                    21982
973.200                    21891.2
973.300                    21877.8
973.400                    21661.5
973.500                    21947.5
973.600                    22180.5
973.700                    22184.5
973.800                    21997.8
973.900                    21917
974.000                    21830
974.100                    22000
974.200                    21869.8
974.300                    21778.8
974.400                    21879.2
974.500                    21837.5
974.600                    21961.2
974.700                    21955
974.800                    21744
974.900                    21818.8
975.000                    21812.8
975.100                    21828.2
975.200                    21955
975.300                    21717.5
975.400                    21958.8
975.500                    22189
975.600                    22080.5
975.700                    21977.8
975.800                    22002.5
975.900                    21819.8
976.000                    22033.2
976.100                    22085.2
976.200                    22220.5
976.300                    22373.5
976.400                    22416.2
976.500                    22244.2
976.600                    22300
976.700                    22270.5
976.800                    22401.5
976.900                    22442.2
977.000                    22449.2
977.100                    22285
977.200                    22209.2
977.300                    22519.2
977.400                    22307.2
977.500                    22264
977.600                    22206
977.700                    22156.8
977.800                    22202
977.900                    22311.2
978.000                    22335.2
978.100                    22364.8
978.200                    22377
978.300                    22282
978.400                    22214.8
978.500                    22353.8
978.600                    22171.8
978.700                    21960
978.800                    21946.2
978.900                    22128.5
979.000                    22151.8
979.100                    21966.2
979.200                    22174.2
979.300                    22024.5
979.400                    22168.2
979.500                    21917
979.600                    21861.5
979.700                    21968.8
979.800                    21848.8
979.900                    22017.2
980.000                    22021.2
980.100                    21905
980.200                    21542.8
980.300                    21795.2
980.400                    21796.2
980.500                    21657
980.600                    21640.2
980.700                    21752.8
980.800                    21813.5
980.900                    21729.5
981.000                    21698
981.100                    21948.5
981.200                    21723.5
981.300                    21764.8
981.400                    21595.2
981.500                    21650.2
981.600                    21531
981.700                    21420.8
981.800                    21605.2
981.900                    21705.8
982.000                    21995.2
982.100                    21827
982.200                    21764.2
982.300                    21572
982.400                    21550.5
982.500                    21802
982.600                    21800.5
982.700                    21802
982.800                    21672
982.900                    21755.8
983.000                    21920.5
983.100                    21833
983.200                    21769
983.300                    21696.5
983.400                    21801.8
983.500                    21749.5
983.600                    21838

File: XPS--13_1-O1s.txt
# Transition                      O 1s
# Notes
# Creation Comment
# Energy Mode                     KE
# Start Energy in eV              715.6
# End Energy in eV                738.6
# Energy Step in eV               0.1
# Number Of Sweeps                5
# Dwell Time per Sweep in s       0.3
# Analyser Mode                   CAE
# Pass Energy in eV/Retard Ratio  25
# Magnification                   high
# Divide Voltages By 10           off
# Excitation Source               Mg Ka 1253.6 eV normal
# Excitation Energy in eV         1253.6
# Analyser Workfunction in eV     4.5
# Entrance Slit                   6 x 12 mm
# Exit Slit                       5 x 11 mm
#
#
# Kinetic Energy in eV         Counts
# --------------------         ------
715.600                    31118.8
715.700                    31135.2
715.800                    31234.8
715.900                    31202.8
716.000                    31272.8
716.100                    31571.5
716.200                    31335
716.300                    31136.8
716.400                    30999
716.500                    30997
716.600                    30923
716.700                    30916
716.800                    31003.2
716.900                    31044.2
717.000                    31133.8
717.100                    31128.5
717.200                    30784
717.300                    30908.5
717.400                    30859.8
717.500                    30897.8
717.600                    31053
717.700                    31048.8
717.800                    30924.5
717.900                    31006
718.000                    30750
718.100                    30882.8
718.200                    30959.8
718.300                    30872
718.400                    30503.2
718.500                    30732.5
718.600                    30854.5
718.700                    30885.2
718.800                    30977.5
718.900                    30701.8
719.000                    30720
719.100                    30973.2
719.200                    31070.8
719.300                    31316.5
719.400                    31239.5
719.500                    31561
719.600                    31382.8
719.700                    31568.8
719.800                    31643.8
719.900                    32142.2
720.000                    32062.8
720.100                    32476.5
720.200                    32785.5
720.300                    33054
720.400                    33451
720.500                    33954.2
720.600                    34317.8
720.700                    34767.8
720.800                    35230.8
720.900                    35956.2
721.000                    36573.8
721.100                    37200.8
721.200                    38018.8
721.300                    39067.2
721.400                    39707
721.500                    40702.2
721.600                    41786
721.700                    42902
721.800                    43793.5
721.900                    45497.2
722.000                    46557.2
722.100                    48190.8
722.200                    49407.8
722.300                    51395.8
722.400                    53198.5
722.500                    54928
722.600                    56828.2
722.700                    59009.5
722.800                    60368.8
722.900                    61704.8
723.000                    62408.2
723.100                    63217.5
723.200                    63147.5
723.300                    62856.5
723.400                    61873
723.500                    60407.5
723.600                    58469.8
723.700                    56299.2
723.800                    53686.8
723.900                    51128.5
724.000                    48401.8
724.100                    45621
724.200                    43039.5
724.300                    40567.2
724.400                    38714.5
724.500                    37059.2
724.600                    35687.8
724.700                    34572.8
724.800                    33676.5
724.900                    32851.5
725.000                    32467.5
725.100                    31958.5
725.200                    31664.5
725.300                    31236.5
725.400                    30907.2
725.500                    30253.5
725.600                    30386.2
725.700                    30445
725.800                    30286.2
725.900                    30124
726.000                    30025.5
726.100                    29810
726.200                    29822
726.300                    29912.8
726.400                    30048.5
726.500                    29877
726.600                    30033.2
726.700                    29729.2
726.800                    29710.5
726.900                    29716.2
727.000                    29671.8
727.100                    29822
727.200                    29746
727.300                    30015.2
727.400                    29930.5
727.500                    30088.2
727.600                    29744.2
727.700                    29720.8
727.800                    29952
727.900                    30030.5
728.000                    29819
728.100                    29812
728.200                    30166.8
728.300                    29623.2
728.400                    29847.8
728.500                    29947.2
728.600                    30083.8
728.700                    29677.5
728.800                    29893.2
728.900                    29927.8
729.000                    29755.2
729.100                    29771
729.200                    29767.5
729.300                    29678.5
729.400                    29629
729.500                    30053.8
729.600                    29965.8
729.700                    30036.5
729.800                    29951
729.900                    30160.2
730.000                    30030.2
730.100                    29808.2
730.200                    30526
730.300                    30641.2
730.400                    30228.2
730.500                    30842.8
730.600                    30963.5
730.700                    31013.8
730.800                    30628.8
730.900                    30811.2
731.000                    30897
731.100                    31347
731.200                    31558.8
731.300                    31643.8
731.400                    31646
731.500                    32150.8
731.600                    32192.5
731.700                    31953.8
731.800                    31672.8
731.900                    31956.5
732.000                    32070.2
732.100                    31914
732.200                    31784.2
732.300                    31690.2
732.400                    31664
732.500                    31451
732.600                    31400.8
732.700                    31251
732.800                    31305.8
732.900                    31191.8
733.000                    31024.2
733.100                    30928.2
733.200                    30814.5
733.300                    31019.5
733.400                    30633.8
733.500                    30617.2
733.600                    30695.8
733.700                    30908
733.800                    30821
733.900                    30465
734.000                    30610.8
734.100                    30264.8
734.200                    30105
734.300                    29916
734.400                    29878.2
734.500                    29725
734.600                    29331.8
734.700                    29094
734.800                    29147.5
734.900                    29309.5
735.000                    29269.8
735.100                    29180.8
735.200                    28881
735.300                    29142.8
735.400                    29103.2
735.500                    28722.5
735.600                    29027.2
735.700                    28966.5
735.800                    28827.5
735.900                    28747.8
736.000                    29069.2
736.100                    28899.2
736.200                    29020.8
736.300                    28692.8
736.400                    28542.5
736.500                    28760.5
736.600                    28964
736.700                    28799
736.800                    28816.2
736.900                    28760
737.000                    28739.2
737.100                    28839.8
737.200                    28580.2
737.300                    28760.5
737.400                    29099.2
737.500                    28995
737.600                    28891.2
737.700                    29061.2
737.800                    28951.5
737.900                    28947
738.000                    29225.5
738.100                    29302.8
738.200                    28960.5
738.300                    29109.5
738.400                    29029.5
738.500                    28774.5
738.600                    28770