Folder: Modena/ITO_Radiator

Note: ITO_Radiator/UPS--7_1-VB.txt
# Transition                      VB low
# Notes                           
# Creation Comment                
# Energy Mode                     KE
# Start Energy in eV              10
# End Energy in eV                23
# Energy Step in eV               0.05
# Number Of Sweeps                10
# Dwell Time per Sweep in s       0.2
# Analyser Mode                   CAE
# Pass Energy in eV/Retard Ratio  5
# Magnification                   low
# Divide Voltages By 10           on
# Excitation Source               Mg Ka 1253.6 eV normal
# Excitation Energy in eV         1253.6
# Analyser Workfunction in eV     4.5
# Entrance Slit                   6 x 12 mm
# Exit Slit                       5 x 11 mm
# 
# 
# Kinetic Energy in eV         Counts
# --------------------         ------
10.000                   2296486.4000
10.050                   2320034.0000
10.100                   2343497.8000
10.150                   2365839.3000
10.200                   2389009.1000
10.250                   2417267.7000
10.300                   2448854.1000
10.350                   2477517.3000
10.400                   2510519.9000
10.450                   2543932.9000
10.500                   2577333.1000
10.550                   2610525.6000
10.600                   2641735.9000
10.650                   2672263.8000
10.700                   2704190.1000
10.750                   2738288.6000
10.800                   2764741.0000
10.850                   2792186.2000
10.900                   2822648.3000
10.950                   2846796.6000
11.000                   2869385.5000
11.050                   2893025.3000
11.100                   2914324.8000
11.150                   2935281.0000
11.200                   2951792.6000
11.250                   2966397.2000
11.300                   2976792.0000
11.350                   2992014.1000
11.400                   3003283.1000
11.450                   3013326.5000
11.500                   3023018.4000
11.550                   3033037.8000
11.600                   3042813.8000
11.650                   3043768.0000
11.700                   3046190.4000
11.750                   3051332.2000
11.800                   3048810.7000
11.850                   3046909.8000
11.900                   3048656.4000
11.950                   3038249.5000
12.000                   3042782.3000
12.050                   3039964.8000
12.100                   3033408.5000
12.150                   3041597.5000
12.200                   3035610.1000
12.250                   3035930.3000
12.300                   3042909.2000
12.350                   3037348.7000
12.400                   3032467.1000
12.450                   3032569.8000
12.500                   3022873.3000
12.550                   3015311.9000
12.600                   3005767.5000
12.650                   2994406.4000
12.700                   2979836.8000
12.750                   2963738.1000
12.

Note: ITO_Radiator/UPS--8_1-cutoff.txt
# Transition                       
# Notes                           
# Creation Comment                
# Energy Mode                     KE
# Start Energy in eV              10
# End Energy in eV                33
# Energy Step in eV               0.05
# Number Of Sweeps                1
# Dwell Time per Sweep in s       0.2
# Analyser Mode                   CAE
# Pass Energy in eV/Retard Ratio  5
# Magnification                   low
# Divide Voltages By 10           on
# Excitation Source               Mg Ka 1253.6 eV normal
# Excitation Energy in eV         1253.6
# Analyser Workfunction in eV     4.5
# Entrance Slit                   6 x 12 mm
# Exit Slit                       5 x 11 mm
# 
# 
# Kinetic Energy in eV         Counts
# --------------------         ------
10.000                      2833.2000
10.050                      2840.0000
10.100                      2909.3000
10.150                      2787.9000
10.200                      2747.3000
10.250                      2727.6000
10.300                      2673.3000
10.350                      2678.4000
10.400                      2618.4000
10.450                      2613.7000
10.500                      2690.1000
10.550                      2763.3000
10.600                      2734.2000
10.650                      2541.3000
10.700                      2625.3000
10.750                      2714.3000
10.800                      2629.3000
10.850                      2632.4000
10.900                      2631.6000
10.950                      2628.6000
11.000                      2636.4000
11.050                      2657.6000
11.100                      2614.8000
11.150                      2661.1000
11.200                      2693.8000
11.250                      2637.1000
11.300                      2641.0000
11.350                      2735.5000
11.400                      2739.1000
11.450                      2686.8000
11.500                      2706.6000
11.550                      2803.6000
11.600                      2781.1000
11.650                      2799.1000
11.700                      2809.6000
11.750                      2712.8000
11.800                      2814.3000
11.850                      2801.3000
11.900                      2815.0000
11.950                      2912.1000
12.000                      2875.4000
12.050                      2959.6000
12.100                      3126.0000
12.150                      3004.2000
12.200                      3047.5000
12.250                      3437.6000
12.300                      4467.0000
12.350                      6175.9000
12.400                      8825.4000
12.450                     12175.3000
12.500                     15837.1000
12.550                     19580.8000
12.600                     22933.9000
12.650                     26368.5000
12.700                     29228.0000
12.750                     31798.4000
12.800   

File: XPS--2_1-wide.txt
# Transition                      wide
# Notes
# Creation Comment
# Energy Mode                     KE
# Start Energy in eV              150
# End Energy in eV                1260
# Energy Step in eV               0.5
# Number Of Sweeps                1
# Dwell Time per Sweep in s       0.2
# Analyser Mode                   CAE
# Pass Energy in eV/Retard Ratio  50
# Magnification                   high
# Divide Voltages By 10           off
# Excitation Source               Mg Ka 1253.6 eV normal
# Excitation Energy in eV         1253.6
# Analyser Workfunction in eV     4.5
# Entrance Slit                   6 x 12 mm
# Exit Slit                       5 x 11 mm
#
#
# Kinetic Energy in eV         Counts
# --------------------         ------
150.000                    56133.5
154.000                    55694.9
158.000                    54734.1
162.000                    55022.1
166.000                    54316.3
170.000                    53768.7
174.000                    53599.4
178.000                    53419.2
182.000                    52804.1
186.000                    52177.1
190.000                    52831
194.000                    51518.7
198.000                    51315.7
202.000                    50946.5
206.000                    50986.2
210.000                    50479.8
214.000                    50225
218.000                    49861.8
222.000                    49865
226.000                    49659.9
230.000                    49120.5
234.000                    49113.7
238.000                    49629.2
242.000                    48929.5
246.000                    48947.2
250.000                    48464.9
254.000                    48723.9
258.000                    49390.3
262.000                    48748.5
266.000                    47743.5
270.000                    46298.3
274.000                    44995.7
278.000                    44440.3
282.000                    44430.1
286.000                    43826
290.000                    43932.5
294.000                    43780.8
298.000                    43144.4
302.000                    42962.7
306.000                    41746.2
310.000                    41921.1
314.000                    41306.1
318.000                    41235.4
322.000                    40878.9
326.000                    40729.8
330.000                    40364.1
334.000                    39778.3
338.000                    40018.7
342.000                    39249.4
346.000                    38052.7
350.000                    36928.3
354.000                    36588.7
358.000                    36115.5
362.000                    35723.5
366.000                    35798.9
370.000                    35531.8
374.000                    35804.2
378.000                    35538.2
382.000                    35550.4
386.000                    34635.8
390.000                    33611.5
394.000                    33528.4
398.000                    38279
402.000                    36709.8
406.000                    35333.7
410.000                    29857
414.000                    27752.8
418.000                    27379.4
422.000                    27863
426.000                    28223.2
430.000                    26956.7
434.000                    26255.5
438.000                    25461.2
442.000                    25264.7
446.000                    25376.9
450.000                    25432.7
454.000                    25467.8
458.000                    25360.1
462.000                    25222.6
466.000                    25597.8
470.000                    25433
474.000                    25550.7
478.000                    25151.4
482.000                    25241.8
486.000                    25445.8
490.000                    25702.2
494.000                    25313.5
498.000                    24516
502.000                    23650.2
506.000                    24284.8
510.000                    25881.7
514.000                    24610.9
518.000                    22622.6
522.000                    21303.4
526.000                    20904.7
530.000                    20713.2
534.000                    21024.9
538.000                    21032.3
542.000                    20351.7
546.000                    20533.3
550.000                    22685
554.000                    19809.5
558.000                    20038.7
562.000                    19767.9
566.000                    19273.4
570.000                    19119.6
574.000                    18501.6
578.000                    17871.2
582.000                    17679.3
586.000                    22158.3
590.000                    19054.2
594.000                    17361.7
598.000                    17043.3
602.000                    16198.9
606.000                    16250.3
610.000                    15915.7
614.000                    15877.5
618.000                    15915.1
622.000                    15973.9
626.000                    15993.1
630.000                    15715.4
634.000                    15991.8
638.000                    15574.4
642.000                    15748
646.000                    16014.2
650.000                    16021.1
654.000                    15669.6
658.000                    15799.8
662.000                    15420.1
666.000                    15607.6
670.000                    15693.6
674.000                    15410.2
678.000                    15300.3
682.000                    15559.6
686.000                    15701.6
690.000                    15413.1
694.000                    15563.4
698.000                    15657.2
702.000                    15821.8
706.000                    15661
710.000                    14931.5
714.000                    14291.1
718.000                    14408.8
722.000                    22104.9
726.000                    13934.4
730.000                    14211.9
734.000                    13816.2
738.000                    13493.5
742.000                    13706.8
746.000                    13495.2
750.000                    13230.5
754.000                    13119.5
758.000                    15436.1
762.000                    12998.5
766.000                    15907.9
770.000                    12928.2
774.000                    12832.7
778.000                    13192.3
782.000                    13414.5
786.000                    13154.4
790.000                    12363.4
794.000                    10367.1
798.000                     9863.9
802.000                    20973.9
806.000                     9338.7
810.000                    19289.3
814.000                     4863.4
818.000                     7043.4
822.000                     3918.3
826.000                     3907.9
830.000                     3679.7
834.000                     3464.5
838.000                     3519
842.000                     3366.7
846.000                     3416.1
850.000                     3467.7
854.000                     3437.5
858.000                     3339
862.000                     3208.4
866.000                     3245.1
870.000                     3186.5
874.000                     3131.8
878.000                     3208.4
882.000                     3126
886.000                     3230.8
890.000                     3160
894.000                     3210.2
898.000                     3194.3
902.000                     3181.5
906.000                     3162.7
910.000                     3213.7
914.000                     3296.6
918.000                     3311.3
922.000                     3333.1
926.000                     3319.7
930.000                     3299.4
934.000                     3293.1
938.000                     3359.4
942.000                     3272.6
946.000                     3408.8
950.000                     3418.7
954.000                     3384.7
958.000                     3212.3
962.000                     3125
966.000                     3898.9
970.000                     3593.5
974.000                     3096
978.000                     3311
982.000                     2905.4
986.000                     2937.1
990.000                     3010
994.000                     2937.7
998.000                     2932
1002.000                    2925.2
1006.000                    2984.1
1010.000                    2972.5
1014.000                    2913.9
1018.000                    2965.4
1022.000                    2929
1026.000                    2922.7
1030.000                    2894.8
1034.000                    3088
1038.000                    2909.3
1042.000                    3162.7
1046.000                    2951.5
1050.000                    2914.5
1054.000                    3002.7
1058.000                    2887.8
1062.000                    2878
1066.000                    2871.2
1070.000                    2930.4
1074.000                    2875.2
1078.000                    2833.8
1082.000                    2890.9
1086.000                    2825.2
1090.000                    2907.9
1094.000                    2927.2
1098.000                    3088.6
1102.000                    3142.6
1106.000                    2917.5
1110.000                    2947.6
1114.000                    2998.9
1118.000                    2866.8
1122.000                    2909.4
1126.000                    2990.3
1130.000                    3384.2
1134.000                    2916.3
1138.000                    2971
1142.000                    3000.9
1146.000                    2890.7
1150.000                    3096.9
1154.000                    2869.9
1158.000                    2942
1162.000                    2892.9
1166.000                    2961.5
1170.000                    2986.8
1174.000                    3067.6
1178.000                    2740.7
1182.000                    2571.3
1186.000                    2293.9
1190.000                    2126.6
1194.000                    2044.3
1198.000                    2069.8
1202.000                    2164.7
1206.000                    2128.8
1210.000                    2168.6
1214.000                    2292.8
1218.000                    2167.7
1222.000                    1946.5
1226.000                    2280.8
1230.000                    1787.4
1234.000                    4988
1238.000                    1637.5
1242.000                    1357.1
1246.000                    1545.9
1250.000                    1092.7
1254.000                     954.5000
1258.000                     892.6000
1260.000                     874.4000

File: XPS--3_1-In3d.txt
# Transition                      In 3d
# Notes
# Creation Comment
# Energy Mode                     KE
# Start Energy in eV              793.6
# End Energy in eV                833.6
# Energy Step in eV               0.1
# Number Of Sweeps                4
# Dwell Time per Sweep in s       0.3
# Analyser Mode                   CAE
# Pass Energy in eV/Retard Ratio  25
# Magnification                   high
# Divide Voltages By 10           off
# Excitation Source               Mg Ka 1253.6 eV normal
# Excitation Energy in eV         1253.6
# Analyser Workfunction in eV     4.5
# Entrance Slit                   6 x 12 mm
# Exit Slit                       5 x 11 mm
#
#
# Kinetic Energy in eV         Counts
# --------------------         ------
793.600                    19511
793.800                    19496.8
794.000                    19406.2
794.200                    18978
794.400                    18721
794.600                    18751.5
794.800                    18529
795.000                    18375.2
795.200                    18450.2
795.400                    18208.5
795.600                    17864
795.800                    17845.5
796.000                    18024.2
796.200                    17386.5
796.400                    17377
796.600                    17503.2
796.800                    17054.8
797.000                    17105.8
797.200                    17118.2
797.400                    17213.8
797.600                    17024.8
797.800                    17033.5
798.000                    17073
798.200                    17350.2
798.400                    17627.8
798.600                    18284.2
798.800                    18950.8
799.000                    19938.5
799.200                    21652
799.400                    24132
799.600                    27417
799.800                    31790.8
800.000                    37176
800.200                    43184.8
800.400                    49534.5
800.600                    55445.2
800.800                    59550
801.000                    62155.8
801.200                    62401.5
801.400                    60021
801.600                    54176.8
801.800                    47259.5
802.000                    39594.2
802.200                    31782.8
802.400                    25948.2
802.600                    21360.5
802.800                    18547
803.000                    16794
803.200                    15203.8
803.400                    14570.2
803.600                    13941.8
803.800                    13182
804.000                    12807.2
804.200                    12635.2
804.400                    12516
804.600                    12615
804.800                    12613.2
805.000                    12530.5
805.200                    12499
805.400                    12847
805.600                    13417.2
805.800                    13754.8
806.000                    14474.8
806.200                    15536.8
806.400                    16845.2
806.600                    19097.8
806.800                    21763.2
807.000                    25898.8
807.200                    31475
807.400                    38134
807.600                    46476.5
807.800                    55424.2
808.000                    64472.2
808.200                    73420.5
808.400                    79685.2
808.600                    83170
808.800                    82853.5
809.000                    78874.8
809.200                    71360
809.400                    60730
809.600                    50084.5
809.800                    39603.8
810.000                    31394
810.200                    25639.2
810.400                    21316.2
810.600                    18778.2
810.800                    16854.2
811.000                    15514.5
811.200                    14909.5
811.400                    14007
811.600                    13425.8
811.800                    12732.2
812.000                    12343.8
812.200                    11560.5
812.400                    10880.5
812.600                    10423.2
812.800                    10152.2
813.000                     9896
813.200                     9642.25
813.400                     9511.25
813.600                     9531.5
813.800                     9338.5
814.000                     9215.75
814.200                     9057.5
814.400                     8913.5
814.600                     8866.25
814.800                     8816.25
815.000                     8892.75
815.200                     8851.5
815.400                     8922.75
815.600                     9419.5
815.800                     9780
816.000                    10396.5
816.200                    10992.5
816.400                    11731.5
816.600                    12430.8
816.800                    12882.2
817.000                    13484.5
817.200                    13588.5
817.400                    13724.5
817.600                    13496.2
817.800                    13497.5
818.000                    13232.5
818.200                    13090.8
818.400                    12676
818.600                    12669.5
818.800                    12530.2
819.000                    12333.5
819.200                    11909.2
819.400                    11650.5
819.600                    10634.2
819.800                    10276.5
820.000                     9694.25
820.200                     9036
820.400                     8618.25
820.600                     8222.75
820.800                     8097.25
821.000                     7970.25
821.200                     7722.5
821.400                     7596
821.600                     7572.25
821.800                     7505.25
822.000                     7385.5
822.200                     7270.75
822.400                     7359.75
822.600                     7287.25
822.800                     7206.5
823.000                     7204.25
823.200                     7190.75
823.400                     7093
823.600                     7094
823.800                     6968
824.000                     7105.75
824.200                     7121.5
824.400                     7051.75
824.600                     7030.25
824.800                     7057.75
825.000                     7043
825.200                     7088.5
825.400                     7122
825.600                     7220
825.800                     7261
826.000                     7320.75
826.200                     7178.25
826.400                     7217.25
826.600                     7212.5
826.800                     7154.25
827.000                     7182.5
827.200                     6997.5
827.400                     7011.5
827.600                     7022.75
827.800                     7067.5
828.000                     7124
828.200                     7033.75
828.400                     7082
828.600                     7134.75
828.800                     7070.25
829.000                     7035.75
829.200                     7082.5
829.400                     7181.5
829.600                     7021.75
829.800                     7078
830.000                     7105.25
830.200                     6770
830.400                     6823.25
830.600                     6863.5
830.800                     6877.75
831.000                     6727.5
831.200                     6634
831.400                     6511.75
831.600                     6700.75
831.800                     6583
832.000                     6659.25
832.200                     6703.5
832.400                     6684.5
832.600                     6659.5
832.800                     6546.75
833.000                     6545.5
833.200                     6592.5
833.400                     6653.75
833.600                     6557