Folder: Modena/ITO_Radiator (part 3)

File: XPS--9_1-wide.txt
# Transition                      wide
# Notes
# Creation Comment
# Energy Mode                     KE
# Start Energy in eV              150
# End Energy in eV                1260
# Energy Step in eV               0.5
# Number Of Sweeps                1
# Dwell Time per Sweep in s       0.2
# Analyser Mode                   CAE
# Pass Energy in eV/Retard Ratio  50
# Magnification                   high
# Divide Voltages By 10           off
# Excitation Source               Mg Ka 1253.6 eV normal
# Excitation Energy in eV         1253.6
# Analyser Workfunction in eV     4.5
# Entrance Slit                   6 x 12 mm
# Exit Slit                       5 x 11 mm
#
#
# Kinetic Energy in eV         Counts
# --------------------         ------
150.000                    92533.6
154.000                    91917.6
158.000                    91418.1
162.000                    90458
166.000                    87903.1
170.000                    86734.3
174.000                    85484.3
178.000                    84359.3
182.000                    84615.6
186.000                    82841
190.000                    81605.4
194.000                    80956.8
198.000                    79488.3
202.000                    78321.2
206.000                    78156.4
210.000                    78641
214.000                    77859.4
218.000                    76997.5
222.000                    76121.3
226.000                    75457.6
230.000                    76224.4
234.000                    75323.1
238.000                    75003.5
242.000                    73901.7
246.000                    73417.3
250.000                    72733.9
254.000                    72486.5
258.000                    73264.7
262.000                    73726.1
266.000                    73011.8
270.000                    70258.2
274.000                    68377.4
278.000                    67779.5
282.000                    68484.6
286.000                    68750.2
290.000                    68586.8
294.000                    69723.1
298.000                    67253.6
302.000                    65914.2
306.000                    64001.4
310.000                    64954.4
314.000                    65896.5
318.000                    66648.3
322.000                    66883.9
326.000                    66434.1
330.000                    67326.3
334.000                    67753.8
338.000                    65478.6
342.000                    60101.6
346.000                    54459.9
350.000                    49478.4
354.000                    45741.5
358.000                    46573.7
362.000                    45039.1
366.000                    44115.6
370.000                    43080.7
374.000                    43118.1
378.000                    42798.1
382.000                    43141.7
386.000                    43644.1
390.000                    44121
394.000                    46935.9
398.000                    63412.9
402.000                    57440.5
406.000                    54578.5
410.000                    37186.5
414.000                    33107.2
418.000                    33156.5
422.000                    34085.3
426.000                    35850.1
430.000                    31788.4
434.000                    31966.2
438.000                    31111.2
442.000                    29155.7
446.000                    27955.7
450.000                    27838.4
454.000                    27872.2
458.000                    27912.3
462.000                    27490.3
466.000                    27322.5
470.000                    27912.1
474.000                    29004.8
478.000                    29823.4
482.000                    28941
486.000                    29362.7
490.000                    29434
494.000                    28841.1
498.000                    27994.1
502.000                    27924.6
506.000                    29474.3
510.000                    32054.6
514.000                    29457.7
518.000                    25561.3
522.000                    23645.3
526.000                    24095.1
530.000                    24263.5
534.000                    25677.5
538.000                    27686.5
542.000                    26087
546.000                    27270.6
550.000                    33282.7
554.000                    25763.4
558.000                    25298.6
562.000                    24178.7
566.000                    24000.6
570.000                    24267.2
574.000                    24160.1
578.000                    24159.2
582.000                    24266.3
586.000                    34991.8
590.000                    27244.6
594.000                    23005
598.000                    22628.9
602.000                    21406.8
606.000                    20998.4
610.000                    20209.3
614.000                    19777.9
618.000                    19630.3
622.000                    20013
626.000                    20581.2
630.000                    21316.9
634.000                    21079.8
638.000                    20510.5
642.000                    20621.2
646.000                    20446.1
650.000                    20161.7
654.000                    20232.9
658.000                    20251.4
662.000                    19639.7
666.000                    20318.8
670.000                    20521.8
674.000                    20796.7
678.000                    20685.6
682.000                    21103.2
686.000                    21197
690.000                    20696.2
694.000                    20734.4
698.000                    20653.7
702.000                    21176
706.000                    21678.3
710.000                    20570
714.000                    20139.6
718.000                    19736.9
722.000                    32433
726.000                    19336.6
730.000                    19176.7
734.000                    19502.7
738.000                    18517.6
742.000                    18691.7
746.000                    18571.1
750.000                    18360.7
754.000                    18497.8
758.000                    24121.7
762.000                    18251.1
766.000                    24314.4
770.000                    18018.5
774.000                    18043.4
778.000                    18295.4
782.000                    18737.1
786.000                    18885.6
790.000                    19084.8
794.000                    17965
798.000                    18409.5
802.000                    47812.6
806.000                    17974
810.000                    41749.1
814.000                     7941.1
818.000                    13023.8
822.000                     5369.3
826.000                     5279.9
830.000                     4830.4
834.000                     4534.3
838.000                     4460.7
842.000                     4313.7
846.000                     4216
850.000                     4130.6
854.000                     4060.3
858.000                     3872.2
862.000                     3683.3
866.000                     3638.5
870.000                     3670.3
874.000                     3676.4
878.000                     3705.6
882.000                     3612.3
886.000                     3615.1
890.000                     3582.5
894.000                     3581.4
898.000                     3520.6
902.000                     3540.4
906.000                     3515.2
910.000                     3504.4
914.000                     3587.1
918.000                     3499.9
922.000                     3531
926.000                     3563.2
930.000                     3421
934.000                     3567.9
938.000                     3458.2
942.000                     3437.5
946.000                     3384.6
950.000                     3323.3
954.000                     3362.6
958.000                     3355
962.000                     3269.4
966.000                     3490
970.000                     3583.8
974.000                     3320.2
978.000                     3278
982.000                     3220.5
986.000                     3092.6
990.000                     3322.4
994.000                     3186.5
998.000                     3188.8
1002.000                    3239.1
1006.000                    3204.6
1010.000                    3329.6
1014.000                    3180.6
1018.000                    3233
1022.000                    3204.6
1026.000                    3192.4
1030.000                    3159.3
1034.000                    3411.6
1038.000                    3191.6
1042.000                    3471.7
1046.000                    3089.6
1050.000                    3155.9
1054.000                    3227.9
1058.000                    3062.7
1062.000                    3145.1
1066.000                    3026.7
1070.000                    3125.8
1074.000                    3127.2
1078.000                    3140.5
1082.000                    3095.2
1086.000                    3144.1
1090.000                    3145.5
1094.000                    3198.5
1098.000                    3158.5
1102.000                    3202.5
1106.000                    3269.1
1110.000                    3258.6
1114.000                    3372.5
1118.000                    3219.7
1122.000                    3271.7
1126.000                    3308.5
1130.000                    3890.1
1134.000                    3309.2
1138.000                    3127.5
1142.000                    3238.3
1146.000                    3203
1150.000                    3350.6
1154.000                    3358.7
1158.000                    3337.7
1162.000                    3563
1166.000                    3736.6
1170.000                    3922.3
1174.000                    4065.5
1178.000                    3416
1182.000                    2963.3
1186.000                    2493
1190.000                    2319
1194.000                    2280.9
1198.000                    2248.6
1202.000                    2219.5
1206.000                    2290.2
1210.000                    2342.8
1214.000                    2396.3
1218.000                    2374.8
1222.000                    2394.9
1226.000                    2858.1
1230.000                    2491.8
1234.000                    7440.5
1238.000                    2073.8
1242.000                    1638.1
1246.000                    2005.6
1250.000                    1287.7
1254.000                     972.5000
1258.000                     964.6000
1260.000                     899.8000

File: XPS--10_1-In3d.txt
# Transition                      In 3d
# Notes
# Creation Comment
# Energy Mode                     KE
# Start Energy in eV              793.6
# End Energy in eV                833.6
# Energy Step in eV               0.1
# Number Of Sweeps                2
# Dwell Time per Sweep in s       0.3
# Analyser Mode                   CAE
# Pass Energy in eV/Retard Ratio  25
# Magnification                   high
# Divide Voltages By 10           off
# Excitation Source               Mg Ka 1253.6 eV normal
# Excitation Energy in eV         1253.6
# Analyser Workfunction in eV     4.5
# Entrance Slit                   6 x 12 mm
# Exit Slit                       5 x 11 mm
#
#
# Kinetic Energy in eV         Counts
# --------------------         ------
793.600                    12914.8
793.800                    12906.5
794.000                    12930.2
794.200                    12902
794.400                    12741.5
794.600                    12689.8
794.800                    12812
795.000                    12597
795.200                    12533
795.400                    12512.5
795.600                    12569.5
795.800                    12476.8
796.000                    12504.5
796.200                    12426
796.400                    12368.8
796.600                    12478.5
796.800                    12432.5
797.000                    12534
797.200                    12654
797.400                    12658
797.600                    12576.2
797.800                    12657.8
798.000                    12878.5
798.200                    12859.5
798.400                    13039.2
798.600                    13561.5
798.800                    13998
799.000                    15020.2
799.200                    16277.8
799.400                    18106
799.600                    21110.8
799.800                    25036.5
800.000                    29777.2
800.200                    36707.8
800.400                    43901
800.600                    50186.8
800.800                    56693.8
801.000                    60437
801.200                    60125.8
801.400                    56140
801.600                    49842.2
801.800                    41761.2
802.000                    33320.8
802.200                    26063
802.400                    20687
802.600                    16964
802.800                    14578.2
803.000                    12802.2
803.200                    11637.5
803.400                    11079.2
803.600                    10539
803.800                    10291.5
804.000                     9797.75
804.200                     9812.75
804.400                     9457.75
804.600                     9323.75
804.800                     9480
805.000                     9433.5
805.200                     9493.5
805.400                     9593.25
805.600                     9810.75
805.800                    10128
806.000                    10706.8
806.200                    11346.8
806.400                    12478.8
806.600                    13775.5
806.800                    15940
807.000                    19022.5
807.200                    23748
807.400                    29901.8
807.600                    37583.5
807.800                    47405
808.000                    57832.8
808.200                    67981
808.400                    76338.2
808.600                    80378
808.800                    80219.2
809.000                    74443
809.200                    65018.2
809.400                    54043.5
809.600                    42256.5
809.800                    32284
810.000                    25056.5
810.200                    19851.8
810.400                    16366
810.600                    14033.8
810.800                    12492.2
811.000                    11582
811.200                    11025.8
811.400                    10426.8
811.600                     9691.25
811.800                     9076.75
812.000                     8638.25
812.200                     7934.75
812.400                     7382.25
812.600                     6970.25
812.800                     6607.25
813.000                     6368.75
813.200                     6372.25
813.400                     6064.25
813.600                     6081.5
813.800                     5871.75
814.000                     5770
814.200                     5650
814.400                     5563
814.600                     5448.5
814.800                     5332.25
815.000                     5438
815.200                     5397.5
815.400                     5516.75
815.600                     5715.25
815.800                     6180.5
816.000                     6556.25
816.200                     7437.25
816.400                     8067.75
816.600                     8778.25
816.800                     9518.5
817.000                    10106
817.200                    10136.5
817.400                     9989
817.600                     9923
817.800                     9553.75
818.000                     9153.25
818.200                     9023.75
818.400                     9017.5
818.600                     8828.25
818.800                     8878
819.000                     8586
819.200                     8420.25
819.400                     8022.75
819.600                     7230.5
819.800                     6652.75
820.000                     6080.25
820.200                     5495.5
820.400                     5086.5
820.600                     4733
820.800                     4431.5
821.000                     4399.25
821.200                     4316.5
821.400                     4194.5
821.600                     4201.75
821.800                     4160.5
822.000                     4073
822.200                     4054.25
822.400                     3950.5
822.600                     3791.75
822.800                     3846.75
823.000                     3784
823.200                     3798.25
823.400                     3710.75
823.600                     3688.75
823.800                     3733.75
824.000                     3755.75
824.200                     3747.5
824.400                     3726.75
824.600                     3730
824.800                     3806
825.000                     3817.25
825.200                     3872.25
825.400                     3906
825.600                     3951.5
825.800                     3850.75
826.000                     3920
826.200                     4053
826.400                     3957.75
826.600                     3944.75
826.800                     3978.25
827.000                     3965.25
827.200                     3849
827.400                     3789
827.600                     3835.75
827.800                     3853
828.000                     3872.25
828.200                     3790
828.400                     3783.75
828.600                     3748.75
828.800                     3843.25
829.000                     3716.5
829.200                     3832.75
829.400                     3780.75
829.600                     3762.5
829.800                     3719
830.000                     3713.75
830.200                     3728
830.400                     3663.5
830.600                     3638.25
830.800                     3554.25
831.000                     3525.75
831.200                     3518.5
831.400                     3591.5
831.600                     3469
831.800                     3385.5
832.000                     3455.75
832.200                     3454
832.400                     3429.75
832.600                     3467.75
832.800                     3366.75
833.000                     3395.25
833.200                     3379
833.400                     3380.75
833.600                     3431.25

File: XPS--11_1-Sn3d.txt
# Transition                      Sn 3d
# Notes
# Creation Comment
# Energy Mode                     KE
# Start Energy in eV              749.6
# End Energy in eV                779.6
# Energy Step in eV               0.1
# Number Of Sweeps                8
# Dwell Time per Sweep in s       0.3
# Analyser Mode                   CAE
# Pass Energy in eV/Retard Ratio  25
# Magnification                   high
# Divide Voltages By 10           off
# Excitation Source               Mg Ka 1253.6 eV normal
# Excitation Energy in eV         1253.6
# Analyser Workfunction in eV     4.5
# Entrance Slit                   6 x 12 mm
# Exit Slit                       5 x 11 mm
#
#
# Kinetic Energy in eV         Counts
# --------------------         ------
749.600                    54213
749.800                    54470.5
750.000                    54267.8
750.200                    54604.2
750.400                    54513.8
750.600                    54629.8
750.800                    54123
751.000                    54731.8
751.200                    54579.5
751.400                    54561.5
751.600                    54530.8
751.800                    54053.8
752.000                    54664.2
752.200                    54299.8
752.400                    54070.8
752.600                    54414
752.800                    54393.8
753.000                    53917.2
753.200                    53906.8
753.400                    54341
753.600                    53843
753.800                    54182
754.000                    53978.8
754.200                    54085.2
754.400                    53866.2
754.600                    53962.8
754.800                    54120.8
755.000                    53573.8
755.200                    53992.2
755.400                    54006.8
755.600                    54049.2
755.800                    53976
756.000                    54411
756.200                    54353.5
756.400                    54513.2
756.600                    55323.2
756.800                    56338.5
757.000                    57339.2
757.200                    59113.2
757.400                    61372
757.600                    64134.5
757.800                    67142.5
758.000                    70409.8
758.200                    72981
758.400                    75103
758.600                    75886.8
758.800                    74569.8
759.000                    71940.8
759.200                    69086.8
759.400                    64970.5
759.600                    61431
759.800                    58837
760.000                    56823.8
760.200                    55161
760.400                    54141
760.600                    53639.8
760.800                    52985.8
761.000                    52939
761.200                    52386.5
761.400                    52355.8
761.600                    52341
761.800                    52368.8
762.000                    52039.2
762.200                    52137.8
762.400                    52324.5
762.600                    51808
762.800                    52193.8
763.000                    51829.5
763.200                    52070.8
763.400                    52116.2
763.600                    52277.5
763.800                    52724.2
764.000                    52136
764.200                    52083.2
764.400                    52795
764.600                    52858.5
764.800                    53720.2
765.000                    54175.5
765.200                    55759
765.400                    57676.5
765.600                    59935.2
765.800                    63183
766.000                    67395
766.200                    72256.2
766.400                    77059.2
766.600                    82077.5
766.800                    85075.8
767.000                    86381.2
767.200                    84652.2
767.400                    81476.5
767.600                    76823.2
767.800                    71389.5
768.000                    66423
768.200                    62489
768.400                    59094
768.600                    56949.5
768.800                    55643.2
769.000                    54902.8
769.200                    53587.2
769.400                    53037.8
769.600                    52919.2
769.800                    52228
770.000                    52497
770.200                    52006
770.400                    51958
770.600                    51800.8
770.800                    51387.2
771.000                    51600.8
771.200                    51431.2
771.400                    51156
771.600                    51408.5
771.800                    51477.5
772.000                    51428.2
772.200                    51933.2
772.400                    51484.8
772.600                    51717.2
772.800                    51593
773.000                    51696.8
773.200                    51417
773.400                    51626
773.600                    51465.5
773.800                    51689.2
774.000                    52097.8
774.200                    52485.2
774.400                    52122.5
774.600                    52837
774.800                    53275.5
775.000                    53912.8
775.200                    53988.2
775.400                    54458
775.600                    54186
775.800                    54557.2
776.000                    54422
776.200                    53940.2
776.400                    54441.2
776.600                    54002.2
776.800                    53991.8
777.000                    53868.2
777.200                    53743.8
777.400                    54387.8
777.600                    53345.2
777.800                    53716.8
778.000                    53791.8
778.200                    53060.5
778.400                    53054.2
778.600                    52834.8
778.800                    52935.2
779.000                    53295.2
779.200                    53015
779.400                    53297.8
779.600                    53275.2