Folder: Modena/ITO_Radiator (part 2)

File: XPS--4_1-Sn3d.txt
# Transition                      Sn 3d
# Notes
# Creation Comment
# Energy Mode                     KE
# Start Energy in eV              749.6
# End Energy in eV                779.6
# Energy Step in eV               0.1
# Number Of Sweeps                15
# Dwell Time per Sweep in s       0.3
# Analyser Mode                   CAE
# Pass Energy in eV/Retard Ratio  25
# Magnification                   high
# Divide Voltages By 10           off
# Excitation Source               Mg Ka 1253.6 eV normal
# Excitation Energy in eV         1253.6
# Analyser Workfunction in eV     4.5
# Entrance Slit                   6 x 12 mm
# Exit Slit                       5 x 11 mm
#
#
# Kinetic Energy in eV         Counts
# --------------------         ------
749.600                    90187.8
749.800                    89469.2
750.000                    89821
750.200                    90270.5
750.400                    89625.8
750.600                    89985.2
750.800                    89423.5
751.000                    90214.5
751.200                    90002
751.400                    89311
751.600                    89066.8
751.800                    89510.8
752.000                    89910.5
752.200                    89206
752.400                    89544.2
752.600                    88958.8
752.800                    89434.2
753.000                    89502.8
753.200                    88671.2
753.400                    88783.5
753.600                    89242.2
753.800                    89102.2
754.000                    88755.2
754.200                    88730.5
754.400                    89036.5
754.600                    88604.5
754.800                    88973.5
755.000                    88037.8
755.200                    88903.2
755.400                    88950.2
755.600                    88862.8
755.800                    88954.2
756.000                    89183.5
756.200                    89627
756.400                    90053
756.600                    90997.2
756.800                    92594.8
757.000                    93769
757.200                    96609.5
757.400                    98776
757.600                   102004
757.800                   105079
758.000                   107427
758.200                   109549
758.400                   109841
758.600                   108799
758.800                   106890
759.000                   104809
759.200                   100586
759.400                    97523.2
759.600                    94332.5
759.800                    91884.8
760.000                    89897.2
760.200                    89142.2
760.400                    88272
760.600                    87691.5
760.800                    87542.5
761.000                    86858.2
761.200                    86868
761.400                    86700.5
761.600                    87080.8
761.800                    86966
762.000                    86418.5
762.200                    86325.2
762.400                    86262.5
762.600                    86549.8
762.800                    85902.5
763.000                    86635.5
763.200                    86626.5
763.400                    86732.2
763.600                    87055.5
763.800                    87281
764.000                    87374.2
764.200                    87514.2
764.400                    88579.8
764.600                    88787.5
764.800                    90104.5
765.000                    91188.8
765.200                    93155
765.400                    96332.8
765.600                    99518.5
765.800                   103096
766.000                   108166
766.200                   112280
766.400                   116790
766.600                   118974
766.800                   121524
767.000                   120242
767.200                   118189
767.400                   113574
767.600                   109388
767.800                   103400
768.000                    99060.5
768.200                    95545.5
768.400                    92618.2
768.600                    90643.2
768.800                    89683.2
769.000                    88790.5
769.200                    88431.5
769.400                    87869.2
769.600                    87752
769.800                    87209.8
770.000                    86909.2
770.200                    86822
770.400                    86492
770.600                    85945.8
770.800                    86723.8
771.000                    86359.8
771.200                    86500.2
771.400                    86231.2
771.600                    86084.2
771.800                    86317.5
772.000                    86028
772.200                    86170
772.400                    85733.8
772.600                    86006.8
772.800                    86306.2
773.000                    86147
773.200                    86139
773.400                    86182.5
773.600                    86812
773.800                    86395.5
774.000                    86621.8
774.200                    87272
774.400                    88107.5
774.600                    87921.8
774.800                    88472.5
775.000                    88660.8
775.200                    89392
775.400                    89216.2
775.600                    89362.8
775.800                    89189.2
776.000                    89402.5
776.200                    88932.8
776.400                    89398.2
776.600                    89403.5
776.800                    89459.2
777.000                    89362.8
777.200                    89537
777.400                    89549.2
777.600                    89413.2
777.800                    89163
778.000                    88769.8
778.200                    88910.5
778.400                    88765.8
778.600                    88660.2
778.800                    88201.5
779.000                    88398.8
779.200                    89008.2
779.400                    88537.5
779.600                    88794.2

File: XPS--5_1-C1s.txt
# Transition                      C 1s
# Notes
# Creation Comment
# Energy Mode                     KE
# Start Energy in eV              957.6
# End Energy in eV                983.6
# Energy Step in eV               0.1
# Number Of Sweeps                10
# Dwell Time per Sweep in s       0.3
# Analyser Mode                   CAE
# Pass Energy in eV/Retard Ratio  25
# Magnification                   high
# Divide Voltages By 10           off
# Excitation Source               Mg Ka 1253.6 eV normal
# Excitation Energy in eV         1253.6
# Analyser Workfunction in eV     4.5
# Entrance Slit                   6 x 12 mm
# Exit Slit                       5 x 11 mm
#
#
# Kinetic Energy in eV         Counts
# --------------------         ------
957.600                    16337
957.700                    16415.2
957.800                    16153.5
957.900                    15926.5
958.000                    16027
958.100                    16040
958.200                    15893.2
958.300                    16100.5
958.400                    16071.2
958.500                    15883.8
958.600                    15980
958.700                    16084.5
958.800                    15835.5
958.900                    15911.2
959.000                    15947.5
959.100                    15721
959.200                    15855.5
959.300                    15944
959.400                    15892.8
959.500                    15961
959.600                    16127.5
959.700                    16061.5
959.800                    15879
959.900                    15958
960.000                    15713.5
960.100                    15916.5
960.200                    15915.2
960.300                    15914
960.400                    15781.8
960.500                    15783.5
960.600                    15880.5
960.700                    15802.8
960.800                    15724
960.900                    15915.8
961.000                    15835.5
961.100                    15899
961.200                    15817
961.300                    15839.5
961.400                    15974.5
961.500                    15916.2
961.600                    15852.5
961.700                    15712.8
961.800                    15969.8
961.900                    15956.8
962.000                    15929.5
962.100                    15806.2
962.200                    15878
962.300                    15918.5
962.400                    15921.5
962.500                    16079.2
962.600                    16057.5
962.700                    15937.5
962.800                    16224
962.900                    16123
963.000                    16084
963.100                    16304.2
963.200                    16388.8
963.300                    16421.8
963.400                    16591.5
963.500                    16562.5
963.600                    16695.2
963.700                    16930.8
963.800                    16993.2
963.900                    17078.5
964.000                    17148.8
964.100                    17210.2
964.200                    17241.8
964.300                    17387.2
964.400                    17599.8
964.500                    17420
964.600                    17220.5
964.700                    17268.8
964.800                    17101.2
964.900                    17139.8
965.000                    16951.8
965.100                    16857.2
965.200                    17098.5
965.300                    16874
965.400                    16773.8
965.500                    16828.2
965.600                    16562.2
965.700                    16774.2
965.800                    17043.2
965.900                    17091.5
966.000                    17170
966.100                    17192
966.200                    17417.8
966.300                    17802.5
966.400                    18284
966.500                    18445.5
966.600                    18604.2
966.700                    19153.2
966.800                    19910.8
966.900                    20418.8
967.000                    21035.5
967.100                    22094.5
967.200                    23216.5
967.300                    24485.5
967.400                    25276
967.500                    26937
967.600                    28445.5
967.700                    30113.5
967.800                    31841.5
967.900                    33012.5
968.000                    34615.8
968.100                    35243.8
968.200                    36266.8
968.300                    36269.2
968.400                    36310.8
968.500                    35883.8
968.600                    34926
968.700                    34190
968.800                    32655.8
968.900                    30752.5
969.000                    28899.2
969.100                    27276.8
969.200                    25512.2
969.300                    23902.2
969.400                    22551.5
969.500                    21130.5
969.600                    19831.5
969.700                    18655
969.800                    18379
969.900                    17827.2
970.000                    17304.8
970.100                    17052.5
970.200                    16413.5
970.300                    16326.8
970.400                    16080.8
970.500                    15966.2
970.600                    15732.2
970.700                    15673.8
970.800                    15647.5
970.900                    15563.2
971.000                    15613
971.100                    15524.2
971.200                    15486
971.300                    15459.5
971.400                    15352.8
971.500                    15374.8
971.600                    15266
971.700                    15365.2
971.800                    15372
971.900                    15344
972.000                    15160.2
972.100                    15276.2
972.200                    15339
972.300                    15363.2
972.400                    15476.2
972.500                    15463.2
972.600                    15313
972.700                    15160.8
972.800                    15313.8
972.900                    15412.5
973.000                    15214.2
973.100                    15340.8
973.200                    15548
973.300                    15406
973.400                    15559.8
973.500                    15436.5
973.600                    15365.5
973.700                    15329.8
973.800                    15112.2
973.900                    15206.8
974.000                    15410.8
974.100                    15437.2
974.200                    15245.8
974.300                    15317.8
974.400                    15580
974.500                    15366.8
974.600                    15253.8
974.700                    15305
974.800                    15280.2
974.900                    15243
975.000                    15287
975.100                    15399.5
975.200                    15276.2
975.300                    15372.8
975.400                    15445.5
975.500                    15544.5
975.600                    15583.2
975.700                    15634.8
975.800                    15869.2
975.900                    15864
976.000                    15931.8
976.100                    16298.8
976.200                    16129.5
976.300                    16379
976.400                    16356
976.500                    16704
976.600                    16526.5
976.700                    16651.8
976.800                    16365.5
976.900                    16527.5
977.000                    16716.8
977.100                    16626
977.200                    16553.5
977.300                    16587.2
977.400                    16540.5
977.500                    16583.5
977.600                    16393
977.700                    16469.5
977.800                    16442.2
977.900                    16344.8
978.000                    16215.8
978.100                    16166.8
978.200                    16239
978.300                    16096.5
978.400                    16323.5
978.500                    16232
978.600                    16293.5
978.700                    16044.8
978.800                    15909
978.900                    15962
979.000                    15907.8
979.100                    15995
979.200                    15825
979.300                    15747.5
979.400                    15705
979.500                    15556.2
979.600                    15390.2
979.700                    15274.2
979.800                    15113.2
979.900                    15188
980.000                    15037
980.100                    15035.8
980.200                    15071.2
980.300                    14835
980.400                    15039.2
980.500                    14946
980.600                    14824
980.700                    14731
980.800                    14833.5
980.900                    14961
981.000                    15078.8
981.100                    14880.5
981.200                    14774.8
981.300                    14872.8
981.400                    15019.5
981.500                    14846
981.600                    14922.8
981.700                    14864.8
981.800                    14949
981.900                    14934.5
982.000                    14844.5
982.100                    14861.8
982.200                    14881.8
982.300                    14947.5
982.400                    14899
982.500                    14863.8
982.600                    14805.8
982.700                    15045.2
982.800                    14981
982.900                    14966
983.000                    14855.5
983.100                    15063.8
983.200                    14930.2
983.300                    14872.8
983.400                    14878.5
983.500                    14918.5
983.600                    15074

File: XPS--6_1-O1s.txt
# Transition                      O 1s
# Notes
# Creation Comment
# Energy Mode                     KE
# Start Energy in eV              715.6
# End Energy in eV                738.6
# Energy Step in eV               0.1
# Number Of Sweeps                10
# Dwell Time per Sweep in s       0.3
# Analyser Mode                   CAE
# Pass Energy in eV/Retard Ratio  25
# Magnification                   high
# Divide Voltages By 10           off
# Excitation Source               Mg Ka 1253.6 eV normal
# Excitation Energy in eV         1253.6
# Analyser Workfunction in eV     4.5
# Entrance Slit                   6 x 12 mm
# Exit Slit                       5 x 11 mm
#
#
# Kinetic Energy in eV         Counts
# --------------------         ------
715.600                    59889.8
715.700                    59760
715.800                    60087
715.900                    59615.5
716.000                    59720.2
716.100                    59795.5
716.200                    59852.2
716.300                    59743.5
716.400                    60009.2
716.500                    60045.2
716.600                    59208
716.700                    59438.5
716.800                    59654
716.900                    59575
717.000                    59566.2
717.100                    59845.5
717.200                    60054.2
717.300                    59378.5
717.400                    59513.2
717.500                    59339.5
717.600                    59180.5
717.700                    58811.5
717.800                    59467.2
717.900                    59061.8
718.000                    59277.8
718.100                    59408.8
718.200                    59492
718.300                    59613
718.400                    59512
718.500                    59503.5
718.600                    59709.8
718.700                    60192.5
718.800                    59864.8
718.900                    60294.5
719.000                    60478.2
719.100                    60843.5
719.200                    60863.2
719.300                    61645.8
719.400                    61507.5
719.500                    62311.2
719.600                    62571
719.700                    63943.5
719.800                    64367.2
719.900                    65685.5
720.000                    66155.8
720.100                    67018.2
720.200                    68350.8
720.300                    69717.2
720.400                    71611.5
720.500                    72816.5
720.600                    74392.5
720.700                    76187.8
720.800                    77168
720.900                    78762.8
721.000                    80122
721.100                    81404.5
721.200                    82665
721.300                    83276.8
721.400                    84370.2
721.500                    85226
721.600                    85916.8
721.700                    86215.2
721.800                    87317.5
721.900                    87679
722.000                    88511.5
722.100                    88940.8
722.200                    89744.2
722.300                    91139
722.400                    91946.5
722.500                    92727.8
722.600                    93728.2
722.700                    95356.5
722.800                    96499.5
722.900                    96709
723.000                    98364.8
723.100                    98545.8
723.200                    98598.8
723.300                    98496.8
723.400                    97625
723.500                    96513
723.600                    94753.5
723.700                    92295
723.800                    89667
723.900                    86785.8
724.000                    84295.8
724.100                    80682
724.200                    77544
724.300                    74535.2
724.400                    71603.2
724.500                    69199.2
724.600                    67302.2
724.700                    65763.2
724.800                    63710
724.900                    63105.8
725.000                    61705.8
725.100                    60936
725.200                    60243
725.300                    59941
725.400                    59368.2
725.500                    59326
725.600                    59058.5
725.700                    58755
725.800                    58336.5
725.900                    58299.8
726.000                    58244
726.100                    58184.5
726.200                    58284
726.300                    58221.8
726.400                    58299.8
726.500                    58148.5
726.600                    57850.5
726.700                    57986.2
726.800                    57805.5
726.900                    58122
727.000                    58386.5
727.100                    57811
727.200                    57998
727.300                    58067.8
727.400                    57589.5
727.500                    57975.5
727.600                    58120
727.700                    57658.2
727.800                    57539.8
727.900                    57699.2
728.000                    58077
728.100                    58114.5
728.200                    58068.5
728.300                    58365.5
728.400                    57919.2
728.500                    57898
728.600                    57849.8
728.700                    58135.5
728.800                    58374.8
728.900                    58333
729.000                    58518
729.100                    58642.8
729.200                    58638.2
729.300                    59010.5
729.400                    58640.8
729.500                    58824.8
729.600                    59057
729.700                    59156
729.800                    58894
729.900                    59352.2
730.000                    59183
730.100                    59377.5
730.200                    59520.5
730.300                    59699
730.400                    59527.8
730.500                    59550.2
730.600                    59951
730.700                    60116
730.800                    60521.5
730.900                    60458
731.000                    60683
731.100                    60643.2
731.200                    60681
731.300                    61121.5
731.400                    61586
731.500                    61486
731.600                    61491.8
731.700                    61427.2
731.800                    61211.5
731.900                    61411.5
732.000                    61623.5
732.100                    61126
732.200                    61415.8
732.300                    61020
732.400                    60504.5
732.500                    60349.5
732.600                    60527.8
732.700                    60332
732.800                    60333.5
732.900                    60235.2
733.000                    60045.2
733.100                    59876.2
733.200                    59703.8
733.300                    59564.2
733.400                    59574.5
733.500                    59778.8
733.600                    59403.5
733.700                    59141
733.800                    59154.5
733.900                    58889
734.000                    58763.8
734.100                    58989
734.200                    58831.5
734.300                    58324.2
734.400                    58376
734.500                    57740.2
734.600                    57591.8
734.700                    57856
734.800                    57384.5
734.900                    56950.8
735.000                    57019.8
735.100                    57181.8
735.200                    57619.8
735.300                    57487.5
735.400                    57133.2
735.500                    56899.8
735.600                    56881.2
735.700                    57196.5
735.800                    56462.8
735.900                    56777.5
736.000                    57015.2
736.100                    56668.5
736.200                    56887.2
736.300                    57027.2
736.400                    56835
736.500                    56627.8
736.600                    56941.5
736.700                    56946.5
736.800                    56913.5
736.900                    56790.8
737.000                    56886
737.100                    56996.8
737.200                    57127
737.300                    57016.8
737.400                    57061
737.500                    56890.5
737.600                    56680.2
737.700                    56828
737.800                    56954.2
737.900                    57015.8
738.000                    57126.8
738.100                    57269
738.200                    57042.2
738.300                    57263.5
738.400                    56894.2
738.500                    57223.5
738.600                    57209.5