Folder: Modena/ITO_MLI (part 2)

File: XPS--16_1-Al2p.txt
# Transition                      Al 2p
# Notes
# Creation Comment
# Energy Mode                     KE
# Start Energy in eV              1160
# End Energy in eV                1185
# Energy Step in eV               0.1
# Number Of Sweeps                6
# Dwell Time per Sweep in s       0.3
# Analyser Mode                   CAE
# Pass Energy in eV/Retard Ratio  25
# Magnification                   high
# Divide Voltages By 10           off
# Excitation Source               Mg Ka 1253.6 eV normal
# Excitation Energy in eV         1253.6
# Analyser Workfunction in eV     4.5
# Entrance Slit                   6 x 12 mm
# Exit Slit                       5 x 11 mm
#
#
# Kinetic Energy in eV         Counts
# --------------------         ------
1160.000                    6216.75
1160.100                    6261.5
1160.200                    6152.25
1160.300                    6265.5
1160.400                    6312.75
1160.500                    6171.5
1160.600                    6091.25
1160.700                    6145.75
1160.800                    6018.25
1160.900                    6222.5
1161.000                    6230.75
1161.100                    6255.5
1161.200                    6096.25
1161.300                    6113.25
1161.400                    6081
1161.500                    6200.5
1161.600                    6036.5
1161.700                    6168.25
1161.800                    6140.5
1161.900                    6283.5
1162.000                    6159.75
1162.100                    6175.5
1162.200                    6102.5
1162.300                    6006.5
1162.400                    6203.75
1162.500                    6189
1162.600                    6243.25
1162.700                    6255.5
1162.800                    6201
1162.900                    6063
1163.000                    6252.25
1163.100                    6238.75
1163.200                    6184
1163.300                    6207.75
1163.400                    6173.5
1163.500                    6094.25
1163.600                    6130
1163.700                    6247
1163.800                    6173.75
1163.900                    6272.75
1164.000                    6265
1164.100                    6321.5
1164.200                    6087.5
1164.300                    6296.25
1164.400                    6347.5
1164.500                    6196.5
1164.600                    6198.75
1164.700                    6193.25
1164.800                    6191.75
1164.900                    6396.75
1165.000                    6446.5
1165.100                    6405.75
1165.200                    6335.75
1165.300                    6402.5
1165.400                    6408.25
1165.500                    6434.5
1165.600                    6643.5
1165.700                    6580.25
1165.800                    6832.75
1165.900                    6954.5
1166.000                    7149.75
1166.100                    7400.75
1166.200                    7543.75
1166.300                    7897.25
1166.400                    8246.5
1166.500                    8479.25
1166.600                    9044.75
1166.700                    9553
1166.800                   10003.8
1166.900                   10408.2
1167.000                   11076.8
1167.100                   11606.5
1167.200                   12262.8
1167.300                   12540.2
1167.400                   13002
1167.500                   13351.2
1167.600                   13609
1167.700                   13931
1167.800                   13739
1167.900                   13641.2
1168.000                   13482
1168.100                   13294.5
1168.200                   12778.2
1168.300                   12428.8
1168.400                   11951.2
1168.500                   11212
1168.600                   10653.2
1168.700                   10260
1168.800                    9735.5
1168.900                    9283.5
1169.000                    9008.25
1169.100                    8546.75
1169.200                    8172.25
1169.300                    7873.75
1169.400                    7502
1169.500                    7622
1169.600                    7487.5
1169.700                    7600.25
1169.800                    7601.25
1169.900                    7645.75
1170.000                    7844.25
1170.100                    8069.75
1170.200                    8275.5
1170.300                    8521.75
1170.400                    8835.5
1170.500                    9052.5
1170.600                    9077
1170.700                    9279.75
1170.800                    9263.75
1170.900                    9001.25
1171.000                    8780.5
1171.100                    8609.5
1171.200                    8174
1171.300                    7833.5
1171.400                    7533
1171.500                    6896.5
1171.600                    6696.25
1171.700                    6428.25
1171.800                    6400.5
1171.900                    6158
1172.000                    6089.75
1172.100                    5925
1172.200                    5939.75
1172.300                    6010.25
1172.400                    5904.25
1172.500                    6045.5
1172.600                    5907.5
1172.700                    5807
1172.800                    5851
1172.900                    5870
1173.000                    5776
1173.100                    5846.75
1173.200                    5884.5
1173.300                    5777
1173.400                    5729.75
1173.500                    5664
1173.600                    5722
1173.700                    5822.25
1173.800                    5844.5
1173.900                    5877.5
1174.000                    5758.75
1174.100                    5770.25
1174.200                    5747.5
1174.300                    5791.5
1174.400                    5715.25
1174.500                    5755.25
1174.600                    5757.25
1174.700                    5891.25
1174.800                    5822.75
1174.900                    5819.25
1175.000                    5782
1175.100                    5878
1175.200                    6064.25
1175.300                    5916
1175.400                    5935.25
1175.500                    6157.75
1175.600                    6086.25
1175.700                    6145.75
1175.800                    6125.75
1175.900                    6117.5
1176.000                    6112.75
1176.100                    6264.25
1176.200                    6331.75
1176.300                    6267.25
1176.400                    6254.75
1176.500                    6219
1176.600                    6210.5
1176.700                    6186.75
1176.800                    6160.5
1176.900                    6265.75
1177.000                    6294.75
1177.100                    6352.5
1177.200                    6222.5
1177.300                    6142.25
1177.400                    6194.75
1177.500                    6234.5
1177.600                    6261.75
1177.700                    6103.5
1177.800                    6207
1177.900                    6218.25
1178.000                    6254
1178.100                    6207.75
1178.200                    6352.5
1178.300                    6396.25
1178.400                    6452.75
1178.500                    6376
1178.600                    6201
1178.700                    6236.25
1178.800                    6121.25
1178.900                    6126.5
1179.000                    6136
1179.100                    6104.5
1179.200                    6074.25
1179.300                    6167.75
1179.400                    6058.75
1179.500                    5989.25
1179.600                    5976
1179.700                    5927
1179.800                    6003
1179.900                    5759.5
1180.000                    5853
1180.100                    5744
1180.200                    5782.25
1180.300                    5801.5
1180.400                    5749
1180.500                    5762
1180.600                    5847.75
1180.700                    5763
1180.800                    5874.5
1180.900                    5817.75
1181.000                    5713.5
1181.100                    5874.5
1181.200                    5796.75
1181.300                    5821.5
1181.400                    5745.5
1181.500                    5829
1181.600                    5777.5
1181.700                    5680
1181.800                    5655.75
1181.900                    5696.75
1182.000                    5718.5
1182.100                    5667
1182.200                    5587.5
1182.300                    5561
1182.400                    5539
1182.500                    5652.5
1182.600                    5612.75
1182.700                    5567.5
1182.800                    5661.25
1182.900                    5625.25
1183.000                    5529.25
1183.100                    5522.5
1183.200                    5718
1183.300                    5509.5
1183.400                    5561.75
1183.500                    5566.25
1183.600                    5690.5
1183.700                    5568.5
1183.800                    5685
1183.900                    5670
1184.000                    5670.25
1184.100                    5639.25
1184.200                    5732
1184.300                    5683.25
1184.400                    5658.25
1184.500                    5601.25
1184.600                    5535.5
1184.700                    5640.75
1184.800                    5740.25
1184.900                    5569
1185.000                    5721.25

File: XPS--17_1-C1s.txt
# Transition                      C 1s
# Notes
# Creation Comment
# Energy Mode                     KE
# Start Energy in eV              945
# End Energy in eV                975
# Energy Step in eV               0.1
# Number Of Sweeps                5
# Dwell Time per Sweep in s       0.3
# Analyser Mode                   CAE
# Pass Energy in eV/Retard Ratio  25
# Magnification                   high
# Divide Voltages By 10           off
# Excitation Source               Mg Ka 1253.6 eV normal
# Excitation Energy in eV         1253.6
# Analyser Workfunction in eV     4.5
# Entrance Slit                   6 x 12 mm
# Exit Slit                       5 x 11 mm
#
#
# Kinetic Energy in eV         Counts
# --------------------         ------
945.000                     7926.75
945.200                     8014.25
945.400                     7935.5
945.600                     7907.75
945.800                     7831.25
946.000                     7925.25
946.200                     7937.25
946.400                     7724.75
946.600                     7674.75
946.800                     7620
947.000                     7567.75
947.200                     7593.25
947.400                     7609
947.600                     7611.5
947.800                     7643.75
948.000                     7515.5
948.200                     7528.75
948.400                     7606.75
948.600                     7629.25
948.800                     7432.5
949.000                     7586.25
949.200                     7623.25
949.400                     7710.5
949.600                     7622.25
949.800                     7755.5
950.000                     7678.5
950.200                     7618.25
950.400                     7630.5
950.600                     7717.75
950.800                     7710.75
951.000                     7715.75
951.200                     7690.5
951.400                     7540.75
951.600                     7687.5
951.800                     7772
952.000                     7748.5
952.200                     7760.75
952.400                     7674.25
952.600                     7736
952.800                     7747.75
953.000                     7879.25
953.200                     7673
953.400                     7763.75
953.600                     7756.75
953.800                     7765.75
954.000                     7801.25
954.200                     7750.75
954.400                     7923.75
954.600                     7847
954.800                     7801.5
955.000                     7901
955.200                     7778
955.400                     7863.25
955.600                     8064
955.800                     7890.5
956.000                     7973
956.200                     8173.75
956.400                     8279.25
956.600                     8288.75
956.800                     8488
957.000                     8769
957.200                     9028.75
957.400                     9647.75
957.600                    10128.5
957.800                    10494.2
958.000                    10747.8
958.200                    11175
958.400                    11300.8
958.600                    11080.5
958.800                    11006.5
959.000                    10330
959.200                     9922
959.400                     9442.75
959.600                     9124.5
959.800                     8562
960.000                     8450
960.200                     8177.75
960.400                     7884.5
960.600                     7678
960.800                     7624
961.000                     7619.5
961.200                     7613.75
961.400                     7640.5
961.600                     7445.5
961.800                     7512.25
962.000                     7488.75
962.200                     7581.75
962.400                     7468.25
962.600                     7433.5
962.800                     7438.5
963.000                     7633.75
963.200                     7450.5
963.400                     7480.75
963.600                     7505.25
963.800                     7538
964.000                     7494.25
964.200                     7599.5
964.400                     7519
964.600                     7529.75
964.800                     7482.25
965.000                     7440.75
965.200                     7454.75
965.400                     7626
965.600                     7582.5
965.800                     7515
966.000                     7677
966.200                     7808
966.400                     7741
966.600                     7862.5
966.800                     7817.5
967.000                     7792.25
967.200                     7871.5
967.400                     7765
967.600                     7722.75
967.800                     7814.5
968.000                     7805.25
968.200                     7747
968.400                     7817
968.600                     7723.25
968.800                     7783.75
969.000                     7801
969.200                     7713.75
969.400                     7670.5
969.600                     7474.75
969.800                     7484.75
970.000                     7304.5
970.200                     7544.25
970.400                     7499.25
970.600                     7360.25
970.800                     7535
971.000                     7576.75
971.200                     7361.75
971.400                     7514.25
971.600                     7491.5
971.800                     7472.25
972.000                     7371
972.200                     7539.75
972.400                     7494.5
972.600                     7403.25
972.800                     7478.75
973.000                     7310
973.200                     7556.25
973.400                     7553.5
973.600                     7626
973.800                     7549.75
974.000                     7481.25
974.200                     7592.25
974.400                     7645.5
974.600                     7348
974.800                     7629.25
975.000                     7551.5

File: XPS--18_1-O1s.txt
# Transition                      O 1s
# Notes
# Creation Comment
# Energy Mode                     KE
# Start Energy in eV              705
# End Energy in eV                735
# Energy Step in eV               0.1
# Number Of Sweeps                1
# Dwell Time per Sweep in s       0.3
# Analyser Mode                   CAE
# Pass Energy in eV/Retard Ratio  25
# Magnification                   high
# Divide Voltages By 10           off
# Excitation Source               Mg Ka 1253.6 eV normal
# Excitation Energy in eV         1253.6
# Analyser Workfunction in eV     4.5
# Entrance Slit                   6 x 12 mm
# Exit Slit                       5 x 11 mm
#
#
# Kinetic Energy in eV         Counts
# --------------------         ------
705.000                     1860.25
705.200                     1887.75
705.400                     1844
705.600                     1840
705.800                     1769.75
706.000                     1829.5
706.200                     1808
706.400                     1756.25
706.600                     1798
706.800                     1834.25
707.000                     1753
707.200                     1811.25
707.400                     1778.5
707.600                     1822.75
707.800                     1783.25
708.000                     1829.75
708.200                     1883.5
708.400                     1825
708.600                     1812.5
708.800                     1873.75
709.000                     1962.5
709.200                     2008.25
709.400                     2066.75
709.600                     2101.75
709.800                     2290.5
710.000                     2489.25
710.200                     2644.25
710.400                     2965.5
710.600                     3279.75
710.800                     3722.75
711.000                     4342.75
711.200                     4787.5
711.400                     5516.5
711.600                     6299.25
711.800                     7251.75
712.000                     8009.5
712.200                     8826
712.400                     9354.5
712.600                     9715.25
712.800                     9539.5
713.000                     9249.25
713.200                     8555
713.400                     7687.75
713.600                     6630.25
713.800                     5478.75
714.000                     4689.75
714.200                     3913.25
714.400                     3248.5
714.600                     2928.75
714.800                     2502.5
715.000                     2264.5
715.200                     2101
715.400                     1979.5
715.600                     1915.75
715.800                     1858.25
716.000                     1782
716.200                     1829
716.400                     1770.25
716.600                     1745.5
716.800                     1816.5
717.000                     1750
717.200                     1870.25
717.400                     1856
717.600                     1770
717.800                     1773.75
718.000                     1795.5
718.200                     1755
718.400                     1748
718.600                     1718
718.800                     1778.25
719.000                     1822.5
719.200                     1843
719.400                     1809.5
719.600                     1859
719.800                     1908.75
720.000                     1989.25
720.200                     2033.75
720.400                     2089.25
720.600                     2140.5
720.800                     2313.75
721.000                     2287.25
721.200                     2348.5
721.400                     2334.5
721.600                     2360
721.800                     2328
722.000                     2290.75
722.200                     2356.75
722.400                     2210.5
722.600                     2219.75
722.800                     2136.75
723.000                     2115.25
723.200                     2072.25
723.400                     2042
723.600                     1950.25
723.800                     1935.25
724.000                     1821.25
724.200                     1880.75
724.400                     1798.25
724.600                     1673.25
724.800                     1651.25
725.000                     1620.5
725.200                     1617.25
725.400                     1557.5
725.600                     1561
725.800                     1523.75
726.000                     1574.5
726.200                     1522.75
726.400                     1564.75
726.600                     1600.5
726.800                     1559.25
727.000                     1528
727.200                     1592
727.400                     1583.75
727.600                     1502.25
727.800                     1552.75
728.000                     1588
728.200                     1589
728.400                     1586
728.600                     1613
728.800                     1657.75
729.000                     1547.25
729.200                     1592.75
729.400                     1533.75
729.600                     1590.75
729.800                     1546.25
730.000                     1609.25
730.200                     1611.25
730.400                     1598.25
730.600                     1628.5
730.800                     1597.5
731.000                     1619.75
731.200                     1602.75
731.400                     1577.5
731.600                     1573.75
731.800                     1590
732.000                     1544.5
732.200                     1591.25
732.400                     1628.5
732.600                     1582.25
732.800                     1591.75
733.000                     1588
733.200                     1604.5
733.400                     1580.75
733.600                     1592.75
733.800                     1518.5
734.000                     1624.5
734.200                     1512.5
734.400                     1526.5
734.600                     1517.75
734.800                     1612.75
735.000                     1546