Folder: Modena/SS_Graphit33 (part 2)

File: XPS--3_1-O1s.txt
# Transition                      O 1s
# Notes
# Creation Comment
# Energy Mode                     KE
# Start Energy in eV              715
# End Energy in eV                734
# Energy Step in eV               0.1
# Number Of Sweeps                3
# Dwell Time per Sweep in s       0.3
# Analyser Mode                   CAE
# Pass Energy in eV/Retard Ratio  25
# Magnification                   high
# Divide Voltages By 10           off
# Excitation Source               Mg Ka 1253.6 eV normal
# Excitation Energy in eV         1253.6
# Analyser Workfunction in eV     4.5
# Entrance Slit                   6 x 12 mm
# Exit Slit                       5 x 11 mm
#
#
# Kinetic Energy in eV         Counts
# --------------------         ------
715.000                     3957.5
715.100                     3895
715.200                     3807.5
715.300                     3799.25
715.400                     3796.75
715.500                     3877.75
715.600                     3845
715.700                     4054.75
715.800                     3933.75
715.900                     3951.75
716.000                     3983
716.100                     4018.5
716.200                     4011.75
716.300                     3937
716.400                     3944.25
716.500                     3885.75
716.600                     3802.25
716.700                     3897.5
716.800                     3957.5
716.900                     3759.5
717.000                     4043.75
717.100                     4010
717.200                     3950
717.300                     3901
717.400                     3903
717.500                     3986
717.600                     3969.75
717.700                     4091.5
717.800                     4006.75
717.900                     4156
718.000                     4116.5
718.100                     4186.5
718.200                     4215.25
718.300                     4286
718.400                     4266.25
718.500                     4447.75
718.600                     4478.25
718.700                     4561.25
718.800                     4789.75
718.900                     4882
719.000                     5073
719.100                     5367
719.200                     5475.75
719.300                     5746.5
719.400                     6057.75
719.500                     6524
719.600                     7003
719.700                     7470.75
719.800                     7835
719.900                     8510.25
720.000                     8940.5
720.100                     9437.5
720.200                     9920.75
720.300                    10415.2
720.400                    10716.5
720.500                    10959.8
720.600                    11204.5
720.700                    11300.8
720.800                    11189.5
720.900                    11148.5
721.000                    10790.8
721.100                    10525.2
721.200                     9790.25
721.300                     9300.25
721.400                     8928.25
721.500                     8463.75
721.600                     7759.5
721.700                     7037.25
721.800                     6617.5
721.900                     6244
722.000                     5854.5
722.100                     5459.5
722.200                     5250.5
722.300                     5070.25
722.400                     4833.75
722.500                     4608
722.600                     4492.25
722.700                     4455.75
722.800                     4319.5
722.900                     4228.25
723.000                     4160.25
723.100                     4056.5
723.200                     4140.25
723.300                     4036
723.400                     3993.75
723.500                     3833.75
723.600                     3856.75
723.700                     3850
723.800                     3746
723.900                     3738.5
724.000                     3769.25
724.100                     3797
724.200                     3766.75
724.300                     3721.25
724.400                     3691
724.500                     3716.5
724.600                     3631.25
724.700                     3613
724.800                     3706
724.900                     3694.5
725.000                     3709.5
725.100                     3616
725.200                     3568.25
725.300                     3671
725.400                     3657.25
725.500                     3682
725.600                     3696.25
725.700                     3606.75
725.800                     3660
725.900                     3655
726.000                     3563
726.100                     3654.5
726.200                     3622.25
726.300                     3652.25
726.400                     3742.25
726.500                     3640
726.600                     3564.5
726.700                     3595.75
726.800                     3608.75
726.900                     3672.75
727.000                     3686
727.100                     3606.75
727.200                     3617.5
727.300                     3656.75
727.400                     3624.75
727.500                     3587.75
727.600                     3693.25
727.700                     3725.5
727.800                     3738.75
727.900                     3714.75
728.000                     3715.25
728.100                     3830.75
728.200                     3897.75
728.300                     3942
728.400                     3921.75
728.500                     4051.5
728.600                     3937.5
728.700                     3867.5
728.800                     4048.5
728.900                     4184.5
729.000                     4099.75
729.100                     4131.75
729.200                     4067.75
729.300                     4065.5
729.400                     4057
729.500                     4171.5
729.600                     4136.5
729.700                     4151.5
729.800                     4052.25
729.900                     4073.25
730.000                     4083.5
730.100                     4117.75
730.200                     4001.75
730.300                     3976
730.400                     3935.75
730.500                     3936
730.600                     4024
730.700                     3895.5
730.800                     3828.75
730.900                     3978
731.000                     3990
731.100                     4068
731.200                     3919.5
731.300                     3891.25
731.400                     3773
731.500                     3878.5
731.600                     3777
731.700                     3743
731.800                     3717.5
731.900                     3717
732.000                     3651.25
732.100                     3640.5
732.200                     3594.75
732.300                     3629.75
732.400                     3659.25
732.500                     3520
732.600                     3546
732.700                     3448.5
732.800                     3497.25
732.900                     3615.25
733.000                     3482
733.100                     3472
733.200                     3515.5
733.300                     3499.25
733.400                     3498.75
733.500                     3492.5
733.600                     3432.25
733.700                     3422
733.800                     3487.5
733.900                     3471.25
734.000                     3430