Folder: Modena/SS_Graphit33

Note: SS_Graphit33/UPS--4_1-DVB.txt
# Transition                      vb high
# Notes                           
# Creation Comment                
# Energy Mode                     KE
# Start Energy in eV              10
# End Energy in eV                23
# Energy Step in eV               0.05
# Number Of Sweeps                6
# Dwell Time per Sweep in s       0.2
# Analyser Mode                   CAE
# Pass Energy in eV/Retard Ratio  5
# Magnification                   high
# Divide Voltages By 10           on
# Excitation Source               Mg Ka 1253.6 eV normal
# Excitation Energy in eV         1253.6
# Analyser Workfunction in eV     4.5
# Entrance Slit                   6 x 12 mm
# Exit Slit                       5 x 11 mm
# 
# 
# Kinetic Energy in eV         Counts
# --------------------         ------
10.000                    977802.3000
10.050                    978746.1000
10.100                    980241.3000
10.150                    981353.5000
10.200                    981893.3000
10.250                    981044.8000
10.300                    981938.3000
10.350                    981641.7000
10.400                    984695.8000
10.450                    984095.5000
10.500                    985075.2000
10.550                    985662.1000
10.600                    983028.2000
10.650                    982152.9000
10.700                    980716.2000
10.750                    978384.9000
10.800                    976140.9000
10.850                    973702.0000
10.900                    969194.3000
10.950                    968136.3000
11.000                    963209.2000
11.050                    960859.7000
11.100                    956086.5000
11.150                    951401.1000
11.200                    946915.7000
11.250                    944633.9000
11.300                    941802.5000
11.350                    938539.6000
11.400                    935306.0000
11.450                    932664.3000
11.500                    929437.7000
11.550                    927155.7000
11.600                    927355.1000
11.650                    923942.2000
11.700                    923241.5000
11.750                    923758.9000
11.800                    922935.4000
11.850                    922588.1000
11.900                    922912.8000
11.950                    921881.0000
12.000                    924020.4000
12.050                    926131.3000
12.100                    926581.0000
12.150                    929322.9000
12.200                    932362.4000
12.250                    934130.4000
12.300                    936004.6000
12.350                    939023.9000
12.400                    942166.1000
12.450                    945345.2000
12.500                    947018.2000
12.550                    949910.6000
12.600                    952472.3000
12.650                    953811.4000
12.700                    956760.2000
12.750                    958094.7000
12

Note: SS_Graphit33/UPS--5_1-Cutoff.txt
# Transition                       
# Notes                           
# Creation Comment                
# Energy Mode                     KE
# Start Energy in eV              10
# End Energy in eV                33
# Energy Step in eV               0.05
# Number Of Sweeps                1
# Dwell Time per Sweep in s       0.2
# Analyser Mode                   CAE
# Pass Energy in eV/Retard Ratio  5
# Magnification                   low
# Divide Voltages By 10           on
# Excitation Source               Mg Ka 1253.6 eV normal
# Excitation Energy in eV         1253.6
# Analyser Workfunction in eV     4.5
# Entrance Slit                   6 x 12 mm
# Exit Slit                       5 x 11 mm
# 
# 
# Kinetic Energy in eV         Counts
# --------------------         ------
10.000                      2956.9000
10.050                      2884.7000
10.100                      2867.1000
10.150                      2838.9000
10.200                      2872.7000
10.250                      2756.9000
10.300                      2691.9000
10.350                      2746.3000
10.400                      2673.3000
10.450                      2699.0000
10.500                      2747.0000
10.550                      2749.8000
10.600                      2597.0000
10.650                      2554.5000
10.700                      2476.0000
10.750                      2499.4000
10.800                      2500.4000
10.850                      2510.9000
10.900                      2503.9000
10.950                      2426.0000
11.000                      2435.0000
11.050                      2432.9000
11.100                      2481.7000
11.150                      2465.4000
11.200                      2378.4000
11.250                      2374.6000
11.300                      2333.6000
11.350                      2354.3000
11.400                      2426.6000
11.450                      2411.5000
11.500                      2346.4000
11.550                      2404.8000
11.600                      2421.6000
11.650                      2439.4000
11.700                      2450.9000
11.750                      2393.4000
11.800                      2393.6000
11.850                      2437.1000
11.900                      2446.9000
11.950                      2424.0000
12.000                      2361.2000
12.050                      2427.5000
12.100                      2561.0000
12.150                      2554.5000
12.200                      2531.2000
12.250                      2591.8000
12.300                      2648.1000
12.350                      2601.2000
12.400                      2751.5000
12.450                      2741.1000
12.500                      2794.5000
12.550                      2836.2000
12.600                      3080.8000
12.650                      3878.0000
12.700                      6176.6000
12.750                     10825.1000
12.800   

File: XPS--1_1-Wide.txt
# Transition                      wide
# Notes
# Creation Comment
# Energy Mode                     KE
# Start Energy in eV              150
# End Energy in eV                1260
# Energy Step in eV               0.5
# Number Of Sweeps                1
# Dwell Time per Sweep in s       0.3
# Analyser Mode                   CAE
# Pass Energy in eV/Retard Ratio  50
# Magnification                   high
# Divide Voltages By 10           off
# Excitation Source               Mg Ka 1253.6 eV normal
# Excitation Energy in eV         1253.6
# Analyser Workfunction in eV     4.5
# Entrance Slit                   6 x 12 mm
# Exit Slit                       5 x 11 mm
#
#
# Kinetic Energy in eV         Counts
# --------------------         ------
150.000                    18404.7
154.000                    18115.5
158.000                    18275.1
162.000                    18044.5
166.000                    17916.8
170.000                    17932.9
174.000                    17590.2
178.000                    17429.3
182.000                    17434.9
186.000                    17367.5
190.000                    17083
194.000                    17248.8
198.000                    17160.1
202.000                    16871.1
206.000                    17000.7
210.000                    16975
214.000                    17001.6
218.000                    16781
222.000                    16824.8
226.000                    16621.9
230.000                    16663.8
234.000                    16838
238.000                    18374.7
242.000                    17665.8
246.000                    16582.5
250.000                    16091.5
254.000                    16819.1
258.000                    17527.4
262.000                    16956.4
266.000                    16082.8
270.000                    14440.2
274.000                    12368.8
278.000                    10607.7
282.000                     9367.6
286.000                     8979.6
290.000                     8822.1
294.000                     9082.3
298.000                     8949.9
302.000                     8973.4
306.000                     8843.7
310.000                     8877.2
314.000                     8833.7
318.000                     8765.8
322.000                     9021.7
326.000                     8803.1
330.000                     8829.1
334.000                     8679.7
338.000                     8648.9
342.000                     8626.1
346.000                     8705
350.000                     8411
354.000                     8083.6
358.000                     8100
362.000                     7957.1
366.000                     7656
370.000                     7767.8
374.000                     7640
378.000                     7792.7
382.000                     7562.9
386.000                     7564.3
390.000                     7718.3
394.000                     7480.8
398.000                     7551.2
402.000                     7514.4
406.000                     7769.6
410.000                     7650.7
414.000                     7641.2
418.000                     7696.9
422.000                     7646.9
426.000                     7636.6
430.000                     7461
434.000                     7591.9
438.000                     7540.6
442.000                     7794.1
446.000                     7700.3
450.000                     7843.4
454.000                     7761.5
458.000                     7751.7
462.000                     7705.5
466.000                     7864.4
470.000                     8013.9
474.000                     7808.6
478.000                     7871.8
482.000                     8118.3
486.000                     8324.8
490.000                     8179.6
494.000                     7987.3
498.000                     7728.1
502.000                     7725.8
506.000                     8551.6
510.000                     8910.2
514.000                     8330.5
518.000                     7062.6
522.000                     6294
526.000                     6187
530.000                     6087.3
534.000                     6076.7
538.000                     6022.6
542.000                     6059.1
546.000                     6054.3
550.000                     6049.3
554.000                     5894.7
558.000                     5975.9
562.000                     5880.1
566.000                     5941
570.000                     5811.9
574.000                     5762.3
578.000                     5813.3
582.000                     5757.9
586.000                     5809.1
590.000                     5764.5
594.000                     5808.5
598.000                     5839
602.000                     5697.8
606.000                     5716.8
610.000                     5785.7
614.000                     5767.2
618.000                     5715.9
622.000                     5695.1
626.000                     5688.1
630.000                     5764
634.000                     5756.7
638.000                     5744.1
642.000                     5732.4
646.000                     5771.8
650.000                     5763.7
654.000                     5860
658.000                     5719.4
662.000                     5658.8
666.000                     5581.2
670.000                     5685.3
674.000                     5819.9
678.000                     5661.7
682.000                     5687
686.000                     5653.5
690.000                     5672.8
694.000                     5854.1
698.000                     5936.2
702.000                     5725.5
706.000                     5487.8
710.000                     5258.7
714.000                     5188.5
718.000                     5901.9
722.000                     8904
726.000                     4925.3
730.000                     5439.7
734.000                     4737.4
738.000                     4703
742.000                     4653.3
746.000                     4778.1
750.000                     4687.3
754.000                     4728.9
758.000                     4741.1
762.000                     4623.7
766.000                     4670.4
770.000                     4761.5
774.000                     4749.3
778.000                     4589.3
782.000                     4703.2
786.000                     4688.5
790.000                     4557.6
794.000                     4700.5
798.000                     4728.5
802.000                     4769
806.000                     4647.2
810.000                     4716.3
814.000                     4634.2
818.000                     4701.8
822.000                     4757.3
826.000                     4818.1
830.000                     4797.1
834.000                     4779
838.000                     4805.2
842.000                     4719.9
846.000                     4817.2
850.000                     4908.2
854.000                     4948.3
858.000                     4868
862.000                     4947.4
866.000                     4912.3
870.000                     5028.2
874.000                     4963.7
878.000                     4989.4
882.000                     4884.2
886.000                     5033.3
890.000                     5077.3
894.000                     5108.7
898.000                     5173.8
902.000                     5275.2
906.000                     5222
910.000                     5330.9
914.000                     5249.7
918.000                     5185.7
922.000                     5108.6
926.000                     5214.2
930.000                     5385.7
934.000                     5780.4
938.000                     5835.1
942.000                     5792.9
946.000                     5237.3
950.000                     4509.6
954.000                     3710.6
958.000                     3572.2
962.000                     4180.1
966.000                     8275.1
970.000                    10442.1
974.000                     1930.5
978.000                     3125
982.000                      985.6000
986.000                     1029.6
990.000                      931.1000
994.000                      769.0000
998.000                      770.0000
1002.000                     715.7000
1006.000                     703.2000
1010.000                     725.1000
1014.000                     789.6000
1018.000                     725.0000
1022.000                     630.0000
1026.000                     636.5000
1030.000                     631.3000
1034.000                     656.0000
1038.000                     626.7000
1042.000                     585.9000
1046.000                     595.8000
1050.000                     601.3000
1054.000                     590.4000
1058.000                     626.1000
1062.000                     610.6000
1066.000                     604.0000
1070.000                     584.5000
1074.000                     578.6000
1078.000                     578.7000
1082.000                     577.6000
1086.000                     612.2000
1090.000                     619.5000
1094.000                     562.5000
1098.000                     606.5000
1102.000                     596.9000
1106.000                     545.5000
1110.000                     578.2000
1114.000                     599.4000
1118.000                     570.8000
1122.000                     541.4000
1126.000                     603.0000
1130.000                     571.2000
1134.000                     542.7000
1138.000                     579.2000
1142.000                     612.4000
1146.000                     528.5000
1150.000                     555.2000
1154.000                     499.7000
1158.000                     568.5000
1162.000                     566.6000
1166.000                     543.8000
1170.000                     546.4000
1174.000                     565.9000
1178.000                     530.8000
1182.000                     532.4000
1186.000                     518.2000
1190.000                     518.6000
1194.000                     529.1000
1198.000                     518.8000
1202.000                     627.4000
1206.000                     509.0000
1210.000                     469.0000
1214.000                     457.1000
1218.000                     475.2000
1222.000                     447.8000
1226.000                     526.0000
1230.000                     481.6000
1234.000                     551.8000
1238.000                     531.7000
1242.000                     485.3000
1246.000                     403.2000
1250.000                     334.4000
1254.000                     268.3000
1258.000                     265.8000
1260.000                     248.6000

File: XPS--2_1-C1s.txt
# Transition                      C 1s
# Notes
# Creation Comment
# Energy Mode                     KE
# Start Energy in eV              957
# End Energy in eV                991
# Energy Step in eV               0.1
# Number Of Sweeps                3
# Dwell Time per Sweep in s       0.3
# Analyser Mode                   CAE
# Pass Energy in eV/Retard Ratio  25
# Magnification                   high
# Divide Voltages By 10           off
# Excitation Source               Mg Ka 1253.6 eV normal
# Excitation Energy in eV         1253.6
# Analyser Workfunction in eV     4.5
# Entrance Slit                   6 x 12 mm
# Exit Slit                       5 x 11 mm
#
#
# Kinetic Energy in eV         Counts
# --------------------         ------
957.000                     2594.25
957.200                     2690.75
957.400                     2678.75
957.600                     2654
957.800                     2741.25
958.000                     2764.5
958.200                     2646.75
958.400                     2703.5
958.600                     2826
958.800                     2766.5
959.000                     2753.75
959.200                     2895.75
959.400                     2824.25
959.600                     2798
959.800                     2831.75
960.000                     2811.75
960.200                     2782.5
960.400                     2818.25
960.600                     2904.75
960.800                     2884.75
961.000                     2976
961.200                     3031.5
961.400                     2989.25
961.600                     3140.75
961.800                     3219.25
962.000                     3305.75
962.200                     3232
962.400                     3294.25
962.600                     3331.25
962.800                     3381
963.000                     3323.75
963.200                     3472.25
963.400                     3309.5
963.600                     3363.25
963.800                     3382.25
964.000                     3526.25
964.200                     3505
964.400                     3575.5
964.600                     3726
964.800                     3931
965.000                     4042
965.200                     4275
965.400                     4504.5
965.600                     4827
965.800                     5090.5
966.000                     5677.75
966.200                     6050
966.400                     6794.5
966.600                     7692.25
966.800                     8368.75
967.000                     9073
967.200                     9611.75
967.400                     9875
967.600                    10232.2
967.800                    11003.8
968.000                    12270
968.200                    14385.2
968.400                    17527
968.600                    20676.5
968.800                    23504
969.000                    25265.2
969.200                    23965.5
969.400                    20418.2
969.600                    15023.2
969.800                    10138.5
970.000                     6545.75
970.200                     4417.25
970.400                     3250.25
970.600                     2649.25
970.800                     2194.75
971.000                     2105.25
971.200                     1852
971.400                     1740.5
971.600                     1650.25
971.800                     1584.5
972.000                     1572.75
972.200                     1522
972.400                     1429.25
972.600                     1512.75
972.800                     1487.75
973.000                     1422.75
973.200                     1439
973.400                     1473.25
973.600                     1556.75
973.800                     1513.5
974.000                     1572.5
974.200                     1488.75
974.400                     1470
974.600                     1549
974.800                     1591
975.000                     1580
975.200                     1594
975.400                     1587.75
975.600                     1651.5
975.800                     1699.75
976.000                     1761.5
976.200                     1791.5
976.400                     1912.75
976.600                     2049.25
976.800                     2363.75
977.000                     2702.25
977.200                     2772.25
977.400                     2963.25
977.600                     2997.25
977.800                     2769.5
978.000                     2542.25
978.200                     2282.25
978.400                     2120.5
978.600                     2030
978.800                     2027.25
979.000                     2106.5
979.200                     2131
979.400                     2041.25
979.600                     1971
979.800                     1722.5
980.000                     1503.75
980.200                     1318.5
980.400                     1050.25
980.600                      992.5000
980.800                      891.0000
981.000                      840.5000
981.200                      825.7500
981.400                      799.5000
981.600                      794.2500
981.800                      793.7500
982.000                      765.5000
982.200                      763.7500
982.400                      780.2500
982.600                      758.5000
982.800                      756.0000
983.000                      770.0000
983.200                      773.7500
983.400                      767.5000
983.600                      747.2500
983.800                      812.5000
984.000                      775.7500
984.200                      751.5000
984.400                      783.2500
984.600                      772.7500
984.800                      798.2500
985.000                      803.7500
985.200                      833.7500
985.400                      772.5000
985.600                      816.2500
985.800                      844.2500
986.000                      819.0000
986.200                      836.5000
986.400                      892.7500
986.600                      808.5000
986.800                      843.0000
987.000                      857.7500
987.200                      804.0000
987.400                      791.2500
987.600                      803.2500
987.800                      773.0000
988.000                      794.7500
988.200                      779.5000
988.400                      728.0000
988.600                      837.0000
988.800                      805.0000
989.000                      786.2500
989.200                      812.0000
989.400                      770.2500
989.600                      781.5000
989.800                      763.7500
990.000                      706.5000
990.200                      712.0000
990.400                      742.7500
990.600                      697.5000
990.800                      739.0000
991.000                      735.7500