Folder: Modena/AbuDhabi_data/XPS_UPS_data/LuncoSimulant_LHS-1_powder (part 5)

File: XPS--15_Cutoff_Low.txt
# Transition
# Notes
# Creation Comment
# Energy Mode                     KE
# Start Energy in eV              10
# End Energy in eV                33
# Energy Step in eV               0.05
# Number Of Sweeps                2
# Dwell Time per Sweep in s       0.2
# Analyser Mode                   CAE
# Pass Energy in eV/Retard Ratio  5
# Magnification                   low
# Divide Voltages By 10           off
# Excitation Source               Mg Ka 1253.6 eV normal
# Excitation Energy in eV         1253.6
# Analyser Workfunction in eV     4.5
# Entrance Slit                   6 x 12 mm
# Exit Slit                       5 x 11 mm
#
#
# Kinetic Energy in eV         Counts
# --------------------         ------
10.000                    287558
10.100                    286617
10.200                    286136
10.300                    286531
10.400                    286323
10.500                    288718
10.600                    289359
10.700                    290529
10.800                    290341
10.900                    292146
11.000                    292723
11.100                    293226
11.200                    292323
11.300                    292144
11.400                    291610
11.500                    289963
11.600                    290411
11.700                    289049
11.800                    288906
11.900                    288376
12.000                    288821
12.100                    288812
12.200                    290955
12.300                    292571
12.400                    294431
12.500                    295557
12.600                    297799
12.700                    299652
12.800                    302007
12.900                    305033
13.000                    308389
13.100                    314427
13.200                    321896
13.300                    332868
13.400                    348226
13.500                    369845
13.600                    401175
13.700                    448603
13.800                    528353
13.900                    664579
14.000                    867335
14.100                   1.08369e+06
14.200                   1.22516e+06
14.300                   1.31341e+06
14.400                   1.34448e+06
14.500                   1.38208e+06
14.600                   1.37424e+06
14.700                   1.39653e+06
14.800                   1.37363e+06
14.900                   1.36891e+06
15.000                   1.3699e+06
15.100                   1.35826e+06
15.200                   1.33928e+06
15.300                   1.32344e+06
15.400                   1.29975e+06
15.500                   1.28232e+06
15.600                   1.25173e+06
15.700                   1.20943e+06
15.800                   1.17381e+06
15.900                   1.13671e+06
16.000                   1.09711e+06
16.100                   1.05623e+06
16.200                   1.01749e+06
16.300                    979597
16.400                    940426
16.500                    904293
16.600                    868074
16.700                    834440
16.800                    799158
16.900                    766242
17.000                    736620
17.100                    707003
17.200                    677403
17.300                    650371
17.400                    624763
17.500                    600657
17.600                    576516
17.700                    554752
17.800                    532237
17.900                    511980
18.000                    492974
18.100                    474312
18.200                    456420
18.300                    439542
18.400                    422349
18.500                    405805
18.600                    391954
18.700                    377008
18.800                    363603
18.900                    348954
19.000                    336363
19.100                    324258
19.200                    312017
19.300                    300396
19.400                    290926
19.500                    279821
19.600                    269863
19.700                    261149
19.800                    251334
19.900                    242907
20.000                    234268
20.100                    226774
20.200                    218732
20.300                    211027
20.400                    204324
20.500                    196758
20.600                    191614
20.700                    185096
20.800                    178714
20.900                    173658
21.000                    167584
21.100                    162498
21.200                    157722
21.300                    153094
21.400                    148454
21.500                    143472
21.600                    139218
21.700                    135364
21.800                    131264
21.900                    127685
22.000                    123671
22.100                    120539
22.200                    117188
22.300                    114165
22.400                    110266
22.500                    107593
22.600                    104774
22.700                    101827
22.800                     99008.1
22.900                     96241.6
23.000                     93789.2
23.100                     91708.7
23.200                     88550.3
23.300                     86823.4
23.400                     84105.6
23.500                     81974.3
23.600                     80158.5
23.700                     78013.8
23.800                     76357.1
23.900                     74009.9
24.000                     71845.6
24.100                     70423
24.200                     68747.9
24.300                     66810.8
24.400                     65654.1
24.500                     63508.9
24.600                     62066.8
24.700                     60706.8
24.800                     59041
24.900                     57881.4
25.000                     56713.7
25.100                     55332.1
25.200                     53665.4
25.300                     52570.8
25.400                     51197.4
25.500                     50083.7
25.600                     48892.3
25.700                     48118
25.800                     46953.8
25.900                     45613.1
26.000                     44750.3
26.100                     43733.7
26.200                     42665.7
26.300                     41986.5
26.400                     40845.6
26.500                     40013.2
26.600                     39242.7
26.700                     37992.6
26.800                     37799.3
26.900                     36859.7
27.000                     35864.1
27.100                     34986.6
27.200                     34652.2
27.300                     33629.8
27.400                     32993.9
27.500                     32372
27.600                     31511.7
27.700                     31050.1
27.800                     30315.2
27.900                     29789.7
28.000                     29542
28.100                     28824.6
28.200                     28023.4
28.300                     27596
28.400                     27126.1
28.500                     26581.1
28.600                     26129.9
28.700                     25556.8
28.800                     24865.2
28.900                     24745.3
29.000                     24207
29.100                     23825.7
29.200                     23271.9
29.300                     22851.8
29.400                     22442.4
29.500                     21911.2
29.600                     21648
29.700                     21009.4
29.800                     20792.5
29.900                     20339.2
30.000                     20304.9
30.100                     19825.2
30.200                     19349.5
30.300                     19154
30.400                     18613.5
30.500                     18100.5
30.600                     18145.2
30.700                     18098.6
30.800                     17711.9
30.900                     17385.8
31.000                     16895.3
31.100                     16634.7
31.200                     16299.6
31.300                     16103.3
31.400                     15808.1
31.500                     15640.2
31.600                     15385
31.700                     15105.7
31.800                     14733.7
31.900                     14495.8
32.000                     14390.8
32.100                     14034.2
32.200                     14038.6
32.300                     13857.3
32.400                     13388
32.500                     13261.6
32.600                     13358.6
32.700                     12972.1
32.800                     12562.5
32.900                     12535
33.000                     12474.8