Folder: Modena/AbuDhabi_data/XPS_UPS_data/LuncoSimulant_LHS-1_powder (part 3)

File: XPS--10_O1s.txt
# Transition                      O 1s
# Notes
# Creation Comment
# Energy Mode                     KE
# Start Energy in eV              703.6
# End Energy in eV                728.6
# Energy Step in eV               0.1
# Number Of Sweeps                3
# Dwell Time per Sweep in s       0.3
# Analyser Mode                   CAE
# Pass Energy in eV/Retard Ratio  25
# Magnification                   high
# Divide Voltages By 10           off
# Excitation Source               Mg Ka 1253.6 eV normal
# Excitation Energy in eV         1253.6
# Analyser Workfunction in eV     4.5
# Entrance Slit                   6 x 12 mm
# Exit Slit                       5 x 11 mm
#
#
# Kinetic Energy in eV         Counts
# --------------------         ------
703.600                     2598.25
703.700                     2506.75
703.800                     2594.75
703.900                     2538.5
704.000                     2572
704.100                     2631.25
704.200                     2591
704.300                     2587.25
704.400                     2401.5
704.500                     2450
704.600                     2543.5
704.700                     2577.25
704.800                     2471.25
704.900                     2503.75
705.000                     2471.75
705.100                     2472.5
705.200                     2416
705.300                     2462.75
705.400                     2340.5
705.500                     2458.75
705.600                     2501.25
705.700                     2443.75
705.800                     2424.5
705.900                     2426
706.000                     2424.75
706.100                     2459.25
706.200                     2493
706.300                     2371.25
706.400                     2349.25
706.500                     2331.25
706.600                     2382.25
706.700                     2393
706.800                     2421.25
706.900                     2389.75
707.000                     2386.75
707.100                     2356
707.200                     2352.5
707.300                     2257
707.400                     2274.75
707.500                     2278
707.600                     2250.75
707.700                     2331
707.800                     2345.25
707.900                     2321.25
708.000                     2280.5
708.100                     2218.75
708.200                     2230.75
708.300                     2293.25
708.400                     2319.75
708.500                     2262.75
708.600                     2277
708.700                     2259.25
708.800                     2280
708.900                     2255.5
709.000                     2236
709.100                     2263.25
709.200                     2324.75
709.300                     2341.5
709.400                     2304.75
709.500                     2290.25
709.600                     2292.75
709.700                     2276.75
709.800                     2385.5
709.900                     2323.25
710.000                     2255.25
710.100                     2331.25
710.200                     2396
710.300                     2355.75
710.400                     2341.25
710.500                     2510.75
710.600                     2517
710.700                     2591
710.800                     2531.5
710.900                     2564.75
711.000                     2676.25
711.100                     2739.5
711.200                     2818.75
711.300                     2928.5
711.400                     3031.25
711.500                     3186.25
711.600                     3225.5
711.700                     3500.75
711.800                     3630.5
711.900                     3941.25
712.000                     4106.5
712.100                     4358.25
712.200                     4586.75
712.300                     4901.5
712.400                     5140
712.500                     5382.5
712.600                     5653
712.700                     5971.5
712.800                     6313.5
712.900                     6555.75
713.000                     6837.75
713.100                     7049.5
713.200                     7185
713.300                     7341.75
713.400                     7384.5
713.500                     7483.25
713.600                     7497.25
713.700                     7571.75
713.800                     7515.75
713.900                     7524.25
714.000                     7245.25
714.100                     7047.25
714.200                     6900.75
714.300                     6693
714.400                     6472.75
714.500                     6212.75
714.600                     5977
714.700                     5762.75
714.800                     5456
714.900                     5279.25
715.000                     5083.25
715.100                     4848.75
715.200                     4644.75
715.300                     4403.25
715.400                     4284.25
715.500                     4110
715.600                     3971.75
715.700                     3828.5
715.800                     3717.75
715.900                     3646.5
716.000                     3546
716.100                     3429.75
716.200                     3372
716.300                     3272
716.400                     3144
716.500                     3210
716.600                     3054
716.700                     2976
716.800                     2847.75
716.900                     2792
717.000                     2706.25
717.100                     2695.75
717.200                     2643.5
717.300                     2609.25
717.400                     2434.25
717.500                     2560.25
717.600                     2494
717.700                     2425.5
717.800                     2407.5
717.900                     2318.25
718.000                     2349.75
718.100                     2327.5
718.200                     2315.75
718.300                     2233
718.400                     2299
718.500                     2232.25
718.600                     2327.75
718.700                     2273
718.800                     2292.75
718.900                     2369
719.000                     2285.25
719.100                     2314.75
719.200                     2300.75
719.300                     2258
719.400                     2232
719.500                     2337.25
719.600                     2287.25
719.700                     2275.5
719.800                     2361.25
719.900                     2322.25
720.000                     2305.5
720.100                     2360
720.200                     2430.75
720.300                     2402.75
720.400                     2369
720.500                     2467.75
720.600                     2444.5
720.700                     2439
720.800                     2546.75
720.900                     2497.25
721.000                     2484.5
721.100                     2622.25
721.200                     2592
721.300                     2598.5
721.400                     2662.75
721.500                     2614
721.600                     2583.5
721.700                     2640.5
721.800                     2628.25
721.900                     2656
722.000                     2650.25
722.100                     2709
722.200                     2690
722.300                     2631.5
722.400                     2652.25
722.500                     2639.25
722.600                     2664.75
722.700                     2684.5
722.800                     2758.75
722.900                     2676.25
723.000                     2698
723.100                     2607
723.200                     2630.25
723.300                     2590.75
723.400                     2611
723.500                     2538.5
723.600                     2532.75
723.700                     2482.25
723.800                     2513.75
723.900                     2553.25
724.000                     2473.5
724.100                     2429.25
724.200                     2397.5
724.300                     2444.75
724.400                     2309.25
724.500                     2323.75
724.600                     2313.5
724.700                     2268
724.800                     2272.25
724.900                     2255.25
725.000                     2202.25
725.100                     2147.25
725.200                     2170.5
725.300                     2171
725.400                     2123.75
725.500                     2110.5
725.600                     2113.5
725.700                     2067.25
725.800                     2063.25
725.900                     2018.25
726.000                     2040.5
726.100                     2031.25
726.200                     2036
726.300                     2045.75
726.400                     2011.5
726.500                     2025.75
726.600                     1982.5
726.700                     1943
726.800                     1960.75
726.900                     2013
727.000                     1926.5
727.100                     1965.25
727.200                     2014.75
727.300                     1897.75
727.400                     1919.75
727.500                     1944.25
727.600                     2000.25
727.700                     1991
727.800                     1863
727.900                     1883
728.000                     1863.75
728.100                     1982.75
728.200                     1976.25
728.300                     1983.25
728.400                     1996.5
728.500                     1941
728.600                     1874

File: XPS--11_Al2p.txt
# Transition                      Al 2p
# Notes
# Creation Comment
# Energy Mode                     KE
# Start Energy in eV              1158.6
# End Energy in eV                1183.6
# Energy Step in eV               0.1
# Number Of Sweeps                41
# Dwell Time per Sweep in s       0.3
# Analyser Mode                   CAE
# Pass Energy in eV/Retard Ratio  25
# Magnification                   high
# Divide Voltages By 10           off
# Excitation Source               Mg Ka 1253.6 eV normal
# Excitation Energy in eV         1253.6
# Analyser Workfunction in eV     4.5
# Entrance Slit                   6 x 12 mm
# Exit Slit                       5 x 11 mm
#
#
# Kinetic Energy in eV         Counts
# --------------------         ------
1158.600                   13015.2
1158.700                   13128.5
1158.800                   13091.5
1158.900                   12960.2
1159.000                   12822.8
1159.100                   12916.8
1159.200                   12731
1159.300                   12938.5
1159.400                   12889
1159.500                   12960.2
1159.600                   13009.5
1159.700                   12843.5
1159.800                   12938.2
1159.900                   12927
1160.000                   12701.2
1160.100                   12813.8
1160.200                   12780.2
1160.300                   12890
1160.400                   12741.2
1160.500                   12678.2
1160.600                   12681
1160.700                   12751.8
1160.800                   12689.2
1160.900                   12722.5
1161.000                   12685.8
1161.100                   12488.8
1161.200                   12423
1161.300                   12587
1161.400                   12549.2
1161.500                   12423.5
1161.600                   12557.2
1161.700                   12559.5
1161.800                   12415.8
1161.900                   12317
1162.000                   12397.2
1162.100                   12566
1162.200                   12334
1162.300                   12382.2
1162.400                   12564.5
1162.500                   12563
1162.600                   12532.2
1162.700                   12396.8
1162.800                   12359.8
1162.900                   12638.2
1163.000                   12506.8
1163.100                   12434
1163.200                   12391.2
1163.300                   12472.2
1163.400                   12590.2
1163.500                   12730.5
1163.600                   12609.8
1163.700                   12681
1163.800                   12627.2
1163.900                   12508.5
1164.000                   12617.8
1164.100                   12507.5
1164.200                   12678.2
1164.300                   12611.2
1164.400                   12794
1164.500                   12865
1164.600                   12859.8
1164.700                   12702.2
1164.800                   12841.8
1164.900                   12869.2
1165.000                   12941.8
1165.100                   12848.5
1165.200                   13075.5
1165.300                   12893.5
1165.400                   13167
1165.500                   12932
1165.600                   13054
1165.700                   12994
1165.800                   13052.2
1165.900                   13006.8
1166.000                   13110.2
1166.100                   13197.2
1166.200                   12938
1166.300                   13068
1166.400                   13049
1166.500                   12898.2
1166.600                   12998.5
1166.700                   12888.5
1166.800                   12955.5
1166.900                   12938.2
1167.000                   12794.8
1167.100                   12787.8
1167.200                   12743.8
1167.300                   12634.2
1167.400                   12561.5
1167.500                   12638.2
1167.600                   12715.8
1167.700                   12780
1167.800                   12692.8
1167.900                   12838.5
1168.000                   12826.2
1168.100                   12750
1168.200                   12796.5
1168.300                   13193.8
1168.400                   13197
1168.500                   13390.5
1168.600                   13460
1168.700                   13539.8
1168.800                   13717.2
1168.900                   14166
1169.000                   14311.5
1169.100                   14606.2
1169.200                   14999.8
1169.300                   15322.8
1169.400                   15668.2
1169.500                   15841.5
1169.600                   16080.5
1169.700                   16494.2
1169.800                   16799
1169.900                   17115.2
1170.000                   17461.8
1170.100                   17846
1170.200                   18054.2
1170.300                   18449
1170.400                   18716.2
1170.500                   19020.5
1170.600                   19209.5
1170.700                   19352
1170.800                   19282.2
1170.900                   19284.5
1171.000                   19213.2
1171.100                   19193.8
1171.200                   19193.5
1171.300                   18947.8
1171.400                   18848
1171.500                   18777.5
1171.600                   18426
1171.700                   17799.8
1171.800                   17829.5
1171.900                   17376.5
1172.000                   17128.8
1172.100                   16499.5
1172.200                   16248.2
1172.300                   15899.2
1172.400                   15705
1172.500                   15412.8
1172.600                   15072.5
1172.700                   14680.5
1172.800                   14445
1172.900                   14304.8
1173.000                   14021.2
1173.100                   13738.5
1173.200                   13621
1173.300                   13615.8
1173.400                   13315.5
1173.500                   13230.5
1173.600                   13018.2
1173.700                   12772.2
1173.800                   12665
1173.900                   12815
1174.000                   12697.8
1174.100                   12538
1174.200                   12403.2
1174.300                   12379
1174.400                   12339
1174.500                   12282
1174.600                   12015
1174.700                   12151
1174.800                   11998
1174.900                   12181
1175.000                   11978
1175.100                   11902.2
1175.200                   12012.5
1175.300                   11878.2
1175.400                   11793.2
1175.500                   11963.2
1175.600                   11799.2
1175.700                   11778.8
1175.800                   11837.5
1175.900                   11745
1176.000                   11617
1176.100                   11579
1176.200                   11670
1176.300                   11637.5
1176.400                   11631.8
1176.500                   11513.5
1176.600                   11570.5
1176.700                   11764.2
1176.800                   11720.2
1176.900                   11552.8
1177.000                   11496.5
1177.100                   11453.2
1177.200                   11632.8
1177.300                   11559.5
1177.400                   11581.8
1177.500                   11465.5
1177.600                   11442.2
1177.700                   11529.2
1177.800                   11590.5
1177.900                   11723.5
1178.000                   11599.8
1178.100                   11585.8
1178.200                   11517
1178.300                   11450.8
1178.400                   11572
1178.500                   11753.8
1178.600                   11707.2
1178.700                   11657.2
1178.800                   11726
1178.900                   11715
1179.000                   11598.8
1179.100                   11573.2
1179.200                   11492.2
1179.300                   11570
1179.400                   11759.5
1179.500                   11581.8
1179.600                   11709.8
1179.700                   11630
1179.800                   11671.8
1179.900                   11699.8
1180.000                   11810.5
1180.100                   11565
1180.200                   11739.2
1180.300                   11569.8
1180.400                   11595.5
1180.500                   11569
1180.600                   11651.8
1180.700                   11668.5
1180.800                   11558.8
1180.900                   11462
1181.000                   11509.2
1181.100                   11593.2
1181.200                   11621.8
1181.300                   11453.2
1181.400                   11633.8
1181.500                   11490
1181.600                   11466.2
1181.700                   11504.5
1181.800                   11419
1181.900                   11489.2
1182.000                   11383
1182.100                   11380.5
1182.200                   11388.2
1182.300                   11470
1182.400                   11534
1182.500                   11433.8
1182.600                   11317.2
1182.700                   11375.2
1182.800                   11383.8
1182.900                   11404
1183.000                   11495
1183.100                   11621.5
1183.200                   11377
1183.300                   11424
1183.400                   11512.5
1183.500                   11431
1183.600                   11406.2