Folder: Modena/AbuDhabi_data/XPS_UPS_data/LuncoSimulant_LHS-1_powder

File: XPS--1_Wide1.txt
# Transition                      wide
# Notes
# Creation Comment
# Energy Mode                     KE
# Start Energy in eV              149.6
# End Energy in eV                1259.6
# Energy Step in eV               0.5
# Number Of Sweeps                1
# Dwell Time per Sweep in s       0.3
# Analyser Mode                   CAE
# Pass Energy in eV/Retard Ratio  50
# Magnification                   high
# Divide Voltages By 10           off
# Excitation Source               Mg Ka 1253.6 eV normal
# Excitation Energy in eV         1253.6
# Analyser Workfunction in eV     4.5
# Entrance Slit                   6 x 12 mm
# Exit Slit                       5 x 11 mm
#
#
# Kinetic Energy in eV         Counts
# --------------------         ------
149.600                    14884.9
153.600                    14585.9
157.600                    14705.1
161.600                    14273.6
165.600                    13947.2
169.600                    13714.9
173.600                    13853.8
177.600                    13567.2
181.600                    13311
185.600                    13368.5
189.600                    12983
193.600                    12748.2
197.600                    12670
201.600                    12687.5
205.600                    12672.7
209.600                    12481.2
213.600                    12118.9
217.600                    12367
221.600                    12206.1
225.600                    12254
229.600                    12404.2
233.600                    12439.9
237.600                    12239.6
241.600                    12336.5
245.600                    11971.6
249.600                    12035
253.600                    12435.9
257.600                    11989.3
261.600                    11598
265.600                    11166.2
269.600                    11058.8
273.600                    10645
277.600                    10411.1
281.600                    10514.7
285.600                    10586.9
289.600                    10444
293.600                    10320.7
297.600                    10398.8
301.600                    10188.9
305.600                     9970
309.600                    10156.3
313.600                    10111.2
317.600                     9952.7
321.600                    10196.9
325.600                    10055.1
329.600                    10089.8
333.600                     9888.3
337.600                    10000.7
341.600                     9875.4
345.600                     9964
349.600                     9831.6
353.600                     9885.6
357.600                     9715
361.600                     9717.1
365.600                     9761.3
369.600                     9837.4
373.600                     9901.1
377.600                     9702.1
381.600                     9505
385.600                     9606.1
389.600                     9489.2
393.600                     9503.3
397.600                     9433.2
401.600                     9370.9
405.600                     9374.5
409.600                     9257.5
413.600                     9367.3
417.600                     9161.2
421.600                     9325.5
425.600                     9046.7
429.600                     9266.1
433.600                     9264.8
437.600                     9346.9
441.600                     9355.2
445.600                     9325.8
449.600                     9280.3
453.600                     9366.1
457.600                     9500.6
461.600                     9531.2
465.600                     9356.2
469.600                     9251.5
473.600                     9449.9
477.600                     9732.6
481.600                     9357.7
485.600                     8969.7
489.600                     8415.6
493.600                     8512.3
497.600                     9654.5
501.600                     9967.7
505.600                     8434.9
509.600                     7388.6
513.600                     6672.4
517.600                     6368
521.600                     6274
525.600                     6137.6
529.600                     6040.7
533.600                     6182.3
537.600                     5743.1
541.600                     5718.9
545.600                     5631.8
549.600                     5504.6
553.600                     5448.8
557.600                     5428.5
561.600                     5409.1
565.600                     5376.8
569.600                     5354.8
573.600                     5412
577.600                     5203.9
581.600                     5226.5
585.600                     5268.8
589.600                     5168.2
593.600                     5170.3
597.600                     4976.4
601.600                     5060.6
605.600                     4909.2
609.600                     4987.3
613.600                     4856.8
617.600                     4895.8
621.600                     4848.4
625.600                     4853
629.600                     4841
633.600                     4929
637.600                     4828.9
641.600                     4864.6
645.600                     4785.9
649.600                     4607.8
653.600                     4635.4
657.600                     4603.7
661.600                     4478.1
665.600                     4523.7
669.600                     4598.9
673.600                     4433.5
677.600                     4441.1
681.600                     4401.1
685.600                     4564.9
689.600                     4740.1
693.600                     4570.6
697.600                     4122.7
701.600                     3645.7
705.600                     3139.4
709.600                     3162.5
713.600                    10215.2
717.600                     3115.2
721.600                     3650.5
725.600                     2711.1
729.600                     2396
733.600                     2431.2
737.600                     2304.2
741.600                     2313.8
745.600                     2336.2
749.600                     2359
753.600                     2293.3
757.600                     2273.1
761.600                     2328.1
765.600                     2305.5
769.600                     2182.3
773.600                     2282.2
777.600                     2185.9
781.600                     2312.1
785.600                     2357.4
789.600                     2101.1
793.600                     1960
797.600                     2002.6
801.600                     1952.4
805.600                     1942.3
809.600                     1933
813.600                     1824.5
817.600                     1911.4
821.600                     1883.8
825.600                     1858.7
829.600                     1853.7
833.600                     1870.9
837.600                     1903.8
841.600                     1867.6
845.600                     1786.8
849.600                     1754.9
853.600                     1871.9
857.600                     1824.9
861.600                     1791.3
865.600                     1742.9
869.600                     1835.1
873.600                     1807.1
877.600                     1681.6
881.600                     1587.9
885.600                     1640.8
889.600                     1646.9
893.600                     1686.4
897.600                     1737.4
901.600                     1617.1
905.600                     1580.7
909.600                     1542
913.600                     1576.8
917.600                     1551.8
921.600                     1597.2
925.600                     1586.9
929.600                     1528.8
933.600                     1522.3
937.600                     1532.8
941.600                     1615.1
945.600                     1498.4
949.600                     1539.9
953.600                     1499
957.600                     1729.4
961.600                     1764.3
965.600                     1578.7
969.600                     1498
973.600                     1392
977.600                     1385.6
981.600                     1405.6
985.600                     1331.6
989.600                     1360.6
993.600                     1286.9
997.600                     1284.2
1001.600                    1356.5
1005.600                    1321.3
1009.600                    1283.2
1013.600                    1285.5
1017.600                    1350
1021.600                    1333
1025.600                    1278
1029.600                    1289.9
1033.600                    1306.5
1037.600                    1290.8
1041.600                    1274.9
1045.600                    1398.2
1049.600                    1315.9
1053.600                    1306.8
1057.600                    1344.1
1061.600                    1319.6
1065.600                    1327.8
1069.600                    1381.1
1073.600                    1311
1077.600                    1289
1081.600                    1252.8
1085.600                    1259.4
1089.600                    1720.9
1093.600                    1363.6
1097.600                    1295
1101.600                    1283.7
1105.600                    1267.7
1109.600                    1240.8
1113.600                    1265.4
1117.600                    1247.8
1121.600                    1231
1125.600                    1422.4
1129.600                    1256.2
1133.600                    1251.1
1137.600                    1100.6
1141.600                    1706.7
1145.600                    1097.3
1149.600                    1120.9
1153.600                    1153.5
1157.600                    1017.1
1161.600                     943.0000
1165.600                    1017
1169.600                    1369.8
1173.600                     957.5000
1177.600                     911.1000
1181.600                     870.9000
1185.600                     860.6000
1189.600                     819.0000
1193.600                     931.5000
1197.600                     844.2000
1201.600                     763.0000
1205.600                     795.8000
1209.600                     775.9000
1213.600                     761.8000
1217.600                     833.6000
1221.600                     803.9000
1225.600                     703.1000
1229.600                     716.8000
1233.600                     706.1000
1237.600                     737.4000
1241.600                     625.2000
1245.600                     621.3000
1249.600                     615.9000
1253.600                     661.0000
1257.600                     661.5000
1259.600                     584.0000

File: XPS--4_Ti2p.txt
# Transition                      Ti 2p
# Notes
# Creation Comment
# Energy Mode                     KE
# Start Energy in eV              771.6
# End Energy in eV                796.6
# Energy Step in eV               0.1
# Number Of Sweeps                30
# Dwell Time per Sweep in s       0.3
# Analyser Mode                   CAE
# Pass Energy in eV/Retard Ratio  25
# Magnification                   high
# Divide Voltages By 10           off
# Excitation Source               Mg Ka 1253.6 eV normal
# Excitation Energy in eV         1253.6
# Analyser Workfunction in eV     4.5
# Entrance Slit                   6 x 12 mm
# Exit Slit                       5 x 11 mm
#
#
# Kinetic Energy in eV         Counts
# --------------------         ------
771.600                    17728.5
771.700                    17675.2
771.800                    17657.5
771.900                    17507
772.000                    17499.5
772.100                    17564.5
772.200                    17663
772.300                    17719
772.400                    17552.2
772.500                    17717.2
772.600                    17622
772.700                    17652.2
772.800                    17864
772.900                    17600.8
773.000                    17659.8
773.100                    17668
773.200                    17862.5
773.300                    17869.5
773.400                    17689.2
773.500                    18028.2
773.600                    17931
773.700                    17941
773.800                    17829.8
773.900                    18054
774.000                    17809.5
774.100                    17754
774.200                    17582.5
774.300                    17551
774.400                    17518.8
774.500                    17745.5
774.600                    17728.8
774.700                    17666.2
774.800                    17673.8
774.900                    17519
775.000                    17678.2
775.100                    17735
775.200                    17620.8
775.300                    17521.2
775.400                    17353.2
775.500                    17460.8
775.600                    17375
775.700                    17255
775.800                    17167.8
775.900                    17309.8
776.000                    17294.8
776.100                    17356.8
776.200                    17400.2
776.300                    17423.5
776.400                    17334.8
776.500                    17285
776.600                    17238
776.700                    17271.2
776.800                    17456.8
776.900                    17329.5
777.000                    17045.8
777.100                    17256.5
777.200                    16950.8
777.300                    16943.5
777.400                    17019
777.500                    17247.2
777.600                    17165.5
777.700                    17116
777.800                    17047.2
777.900                    16939
778.000                    17028.2
778.100                    17285.5
778.200                    17220
778.300                    17388.5
778.400                    17112.2
778.500                    17070.8
778.600                    17015.2
778.700                    17034
778.800                    17244.5
778.900                    17328.8
779.000                    17268.5
779.100                    17249
779.200                    17343.5
779.300                    17252.2
779.400                    17198
779.500                    17316.8
779.600                    17473.2
779.700                    17287.2
779.800                    17342.5
779.900                    17457.8
780.000                    17664
780.100                    17760.2
780.200                    17871
780.300                    18014.8
780.400                    17862
780.500                    17736.8
780.600                    17973.2
780.700                    18184.8
780.800                    18107.8
780.900                    18314
781.000                    18405.5
781.100                    18319.5
781.200                    18496.5
781.300                    18270.5
781.400                    18382
781.500                    18548.8
781.600                    18554.5
781.700                    18437.5
781.800                    18214.2
781.900                    18383.8
782.000                    18352.8
782.100                    18417.5
782.200                    18175.5
782.300                    17956.8
782.400                    17919.5
782.500                    18034
782.600                    17824.8
782.700                    17724.2
782.800                    17847.5
782.900                    17740.8
783.000                    17622.5
783.100                    17614.5
783.200                    17661
783.300                    17621
783.400                    17468.2
783.500                    17511.2
783.600                    17333.8
783.700                    17369.5
783.800                    17280.8
783.900                    17254.5
784.000                    17304
784.100                    17062.2
784.200                    17189
784.300                    17191
784.400                    17092
784.500                    17252
784.600                    17057
784.700                    17106.5
784.800                    17230.2
784.900                    17122
785.000                    17204
785.100                    17268.8
785.200                    17184.8
785.300                    17363.5
785.400                    17411
785.500                    17377.8
785.600                    17617.5
785.700                    17586
785.800                    17686.8
785.900                    17884.8
786.000                    18069.2
786.100                    18240.8
786.200                    18470
786.300                    18806.8
786.400                    18855
786.500                    18925.2
786.600                    19515.2
786.700                    19733.8
786.800                    19999.2
786.900                    20216.8
787.000                    20383.5
787.100                    20707
787.200                    20569.8
787.300                    20654.5
787.400                    20448.8
787.500                    20202.5
787.600                    20140.5
787.700                    19773.2
787.800                    19710
787.900                    19544
788.000                    19001
788.100                    18786.2
788.200                    18507
788.300                    18177
788.400                    18203.2
788.500                    17970.8
788.600                    17736.2
788.700                    17475
788.800                    17379.2
788.900                    17300.2
789.000                    17096.2
789.100                    17102.2
789.200                    17012
789.300                    16945.5
789.400                    16732.5
789.500                    16623
789.600                    16881.8
789.700                    16820.5
789.800                    16706.8
789.900                    16402.8
790.000                    16374.8
790.100                    16484
790.200                    16605.5
790.300                    16403.8
790.400                    16243.8
790.500                    16259
790.600                    16238
790.700                    16227.8
790.800                    16260.8
790.900                    16363.8
791.000                    16023.8
791.100                    16178.2
791.200                    16405.5
791.300                    16355.2
791.400                    16095.8
791.500                    16129.5
791.600                    16125.5
791.700                    15994.5
791.800                    16242.8
791.900                    16285.5
792.000                    16092.2
792.100                    16081.8
792.200                    16049.8
792.300                    16114.2
792.400                    16089
792.500                    16132.8
792.600                    16168.8
792.700                    15967.5
792.800                    16042.8
792.900                    16008
793.000                    15864.8
793.100                    15869.5
793.200                    15868.5
793.300                    15975.8
793.400                    15774
793.500                    15904.2
793.600                    15875.5
793.700                    15889.2
793.800                    15938.5
793.900                    15934.2
794.000                    15821.8
794.100                    15687.8
794.200                    15941.5
794.300                    15849.8
794.400                    15918.5
794.500                    15806
794.600                    16027.5
794.700                    15966.5
794.800                    16038
794.900                    15890.2
795.000                    16117.8
795.100                    16127.5
795.200                    15955.8
795.300                    16041.5
795.400                    16004.8
795.500                    16077.8
795.600                    16061
795.700                    16033.2
795.800                    16032.8
795.900                    15969.8
796.000                    16160
796.100                    15981.8
796.200                    15896.8
796.300                    15916.8
796.400                    16070.8
796.500                    16154.8
796.600                    15894.5