Folder: Modena/AbuDhabi_data/XPS_UPS_data/LuncoSimulant_LHS-1_powder (part 2)

File: XPS--5_Ca2p.txt
# Transition                      Ca 2p
# Notes
# Creation Comment
# Energy Mode                     KE
# Start Energy in eV              883.6
# End Energy in eV                908.6
# Energy Step in eV               0.1
# Number Of Sweeps                35
# Dwell Time per Sweep in s       0.3
# Analyser Mode                   CAE
# Pass Energy in eV/Retard Ratio  25
# Magnification                   high
# Divide Voltages By 10           off
# Excitation Source               Mg Ka 1253.6 eV normal
# Excitation Energy in eV         1253.6
# Analyser Workfunction in eV     4.5
# Entrance Slit                   6 x 12 mm
# Exit Slit                       5 x 11 mm
#
#
# Kinetic Energy in eV         Counts
# --------------------         ------
883.600                    16315.2
883.700                    16452.5
883.800                    16360
883.900                    16473.8
884.000                    16354.2
884.100                    16427.8
884.200                    16355
884.300                    16298
884.400                    16374.5
884.500                    16316
884.600                    16454
884.700                    16236.5
884.800                    16361.8
884.900                    16492.2
885.000                    16419
885.100                    16240.8
885.200                    16347
885.300                    16520
885.400                    16349.5
885.500                    16449.2
885.600                    16161.5
885.700                    16107.2
885.800                    16198.5
885.900                    16338.2
886.000                    16118.5
886.100                    16127.8
886.200                    16250.5
886.300                    16496.5
886.400                    16306.5
886.500                    16263
886.600                    16379
886.700                    16300.8
886.800                    16164.2
886.900                    16191.5
887.000                    16249.2
887.100                    16169.2
887.200                    16450.5
887.300                    16606.5
887.400                    16367.5
887.500                    16356.2
887.600                    16182.5
887.700                    16204.8
887.800                    16123.8
887.900                    16103.2
888.000                    16330
888.100                    16339
888.200                    16238.2
888.300                    16160
888.400                    16281.8
888.500                    16105.2
888.600                    16204.5
888.700                    16383.5
888.800                    16230.8
888.900                    16294
889.000                    16368
889.100                    16282.5
889.200                    16159.5
889.300                    16355.5
889.400                    16249.5
889.500                    16154.8
889.600                    16195
889.700                    16142.2
889.800                    16117.8
889.900                    16166.5
890.000                    16044.5
890.100                    16454.8
890.200                    16291.8
890.300                    16272.5
890.400                    16190
890.500                    15996
890.600                    16188.2
890.700                    16249.8
890.800                    16121.2
890.900                    16048.8
891.000                    16302.2
891.100                    16445.2
891.200                    16410.2
891.300                    16136
891.400                    16204.5
891.500                    16173.5
891.600                    16179
891.700                    16320
891.800                    16400.5
891.900                    16448.5
892.000                    16455.2
892.100                    16668.5
892.200                    16725
892.300                    16649
892.400                    16873
892.500                    16828.8
892.600                    16843.8
892.700                    16872
892.800                    16922.2
892.900                    17277
893.000                    17118
893.100                    17123
893.200                    17140.5
893.300                    17057.2
893.400                    17006.5
893.500                    17305.2
893.600                    17128.5
893.700                    16977
893.800                    16890
893.900                    16877.5
894.000                    16817.8
894.100                    16734
894.200                    17011.2
894.300                    17018.5
894.400                    16767.5
894.500                    16848.5
894.600                    16907.5
894.700                    16692.2
894.800                    16739.5
894.900                    16743.2
895.000                    16794.2
895.100                    16612.5
895.200                    16763.5
895.300                    17077
895.400                    17002.2
895.500                    17067.5
895.600                    17216.8
895.700                    17369.2
895.800                    17373.5
895.900                    17419.2
896.000                    17573.2
896.100                    17737.2
896.200                    17797.2
896.300                    17968.8
896.400                    18081
896.500                    18299.8
896.600                    18289.8
896.700                    18317
896.800                    18222.2
896.900                    18123.8
897.000                    18129
897.100                    18081.5
897.200                    18077
897.300                    18006.8
897.400                    18021
897.500                    18008
897.600                    17747.2
897.700                    17295.2
897.800                    17503.2
897.900                    17576.2
898.000                    17331.2
898.100                    17341
898.200                    17064.5
898.300                    17025
898.400                    17086
898.500                    16897
898.600                    16895.5
898.700                    16697.5
898.800                    16631
898.900                    16549.2
899.000                    16713.5
899.100                    16566.2
899.200                    16472.5
899.300                    16275
899.400                    16350.5
899.500                    16414.5
899.600                    16341.2
899.700                    16477.5
899.800                    16431.5
899.900                    16105.2
900.000                    16206.8
900.100                    16364.5
900.200                    16275.2
900.300                    16347.2
900.400                    16297.5
900.500                    16217.2
900.600                    16261.2
900.700                    16237
900.800                    16048.2
900.900                    16124
901.000                    16074.2
901.100                    16152.8
901.200                    16235
901.300                    16304.8
901.400                    16156.5
901.500                    16320.5
901.600                    16252.8
901.700                    16160.8
901.800                    15989.5
901.900                    16165
902.000                    16214.2
902.100                    16178.2
902.200                    16192.5
902.300                    16230.5
902.400                    16402
902.500                    16119
902.600                    16292.8
902.700                    16336.5
902.800                    16212
902.900                    16020.8
903.000                    15955
903.100                    16098
903.200                    16294
903.300                    16133.5
903.400                    16204.2
903.500                    16230.5
903.600                    16123.8
903.700                    16263.2
903.800                    16223.8
903.900                    16239.5
904.000                    16227.2
904.100                    16188
904.200                    16138.2
904.300                    16074.2
904.400                    16396.5
904.500                    16269.8
904.600                    16271.8
904.700                    16599
904.800                    16250.8
904.900                    16364.2
905.000                    16218.2
905.100                    16192.2
905.200                    16353
905.300                    16401
905.400                    16245.2
905.500                    16295.8
905.600                    16316.8
905.700                    16432.8
905.800                    16422
905.900                    16241.2
906.000                    16468
906.100                    16296.2
906.200                    16233.2
906.300                    16328.5
906.400                    16226.5
906.500                    16237.5
906.600                    16346.5
906.700                    16101.8
906.800                    15976.2
906.900                    16242.2
907.000                    16319.5
907.100                    16303
907.200                    16322
907.300                    16267.2
907.400                    16106.5
907.500                    16325
907.600                    16207
907.700                    16252.5
907.800                    16194.8
907.900                    16161.2
908.000                    16006.2
908.100                    16105.2
908.200                    16011.8
908.300                    16245.2
908.400                    16203
908.500                    16086.8
908.600                    16015.8

File: XPS--6_Si2p.txt
# Transition                      Si 2p
# Notes
# Creation Comment
# Energy Mode                     KE
# Start Energy in eV              1133.6
# End Energy in eV                1158.6
# Energy Step in eV               0.1
# Number Of Sweeps                26
# Dwell Time per Sweep in s       0.3
# Analyser Mode                   CAE
# Pass Energy in eV/Retard Ratio  25
# Magnification                   high
# Divide Voltages By 10           off
# Excitation Source               Mg Ka 1253.6 eV normal
# Excitation Energy in eV         1253.6
# Analyser Workfunction in eV     4.5
# Entrance Slit                   6 x 12 mm
# Exit Slit                       5 x 11 mm
#
#
# Kinetic Energy in eV         Counts
# --------------------         ------
1133.600                   10296.8
1133.700                   10258.2
1133.800                   10161.2
1133.900                    9931.5
1134.000                   10025
1134.100                    9942.5
1134.200                    9923.25
1134.300                    9791.25
1134.400                    9873.25
1134.500                    9835.25
1134.600                    9807.5
1134.700                    9669
1134.800                    9523.25
1134.900                    9601
1135.000                    9500.5
1135.100                    9428
1135.200                    9371
1135.300                    9352.75
1135.400                    9433.5
1135.500                    9317
1135.600                    9164.25
1135.700                    9280.5
1135.800                    9324
1135.900                    9155.5
1136.000                    9173.5
1136.100                    9069.75
1136.200                    9158.75
1136.300                    9180.75
1136.400                    9225.25
1136.500                    8970.75
1136.600                    8987
1136.700                    9241.5
1136.800                    9138.5
1136.900                    9100.75
1137.000                    8865.75
1137.100                    8956.25
1137.200                    9040
1137.300                    8943.75
1137.400                    8858.5
1137.500                    8981.75
1137.600                    9061.75
1137.700                    8973.25
1137.800                    9037
1137.900                    9055.75
1138.000                    9015.75
1138.100                    8962.5
1138.200                    8996
1138.300                    9267.25
1138.400                    9192.75
1138.500                    9056.25
1138.600                    9263.5
1138.700                    9125.75
1138.800                    9254.5
1138.900                    9312.5
1139.000                    9379.75
1139.100                    9548.5
1139.200                    9600.25
1139.300                    9522
1139.400                    9755.25
1139.500                    9963.5
1139.600                   10210.8
1139.700                   10202
1139.800                   10383.8
1139.900                   10553.2
1140.000                   10807
1140.100                   11090.2
1140.200                   11342
1140.300                   11610.8
1140.400                   11963.5
1140.500                   12170.2
1140.600                   12467.8
1140.700                   12809.5
1140.800                   12926
1140.900                   13494.5
1141.000                   13645
1141.100                   13579
1141.200                   13778.2
1141.300                   13972.5
1141.400                   14201.5
1141.500                   14321.5
1141.600                   14111.8
1141.700                   14135
1141.800                   13845.2
1141.900                   13936.5
1142.000                   13651.5
1142.100                   13584.8
1142.200                   13248.2
1142.300                   13042.8
1142.400                   12563.8
1142.500                   12287.8
1142.600                   11937.5
1142.700                   11836.2
1142.800                   11531
1142.900                   11068
1143.000                   10882
1143.100                   10526.2
1143.200                   10450
1143.300                   10196.8
1143.400                   10051.8
1143.500                    9948.25
1143.600                    9688
1143.700                    9653.5
1143.800                    9501.25
1143.900                    9386.75
1144.000                    9474.75
1144.100                    9293.25
1144.200                    9152
1144.300                    9163.5
1144.400                    9129.75
1144.500                    8994.25
1144.600                    8973.5
1144.700                    8992.75
1144.800                    8809.75
1144.900                    8945.25
1145.000                    8957.25
1145.100                    8813
1145.200                    8871.5
1145.300                    8885.5
1145.400                    8713.25
1145.500                    8671.5
1145.600                    8744.5
1145.700                    8683.25
1145.800                    8900
1145.900                    8792
1146.000                    8739.75
1146.100                    8844.25
1146.200                    8802.25
1146.300                    8856.25
1146.400                    8799.5
1146.500                    8746
1146.600                    8705.5
1146.700                    8752.5
1146.800                    8807
1146.900                    8735.75
1147.000                    8721.25
1147.100                    8674.25
1147.200                    8599.25
1147.300                    8616.75
1147.400                    8637.75
1147.500                    8681.25
1147.600                    8798.25
1147.700                    8677.25
1147.800                    8728.75
1147.900                    8803.5
1148.000                    8600.5
1148.100                    8803
1148.200                    8709.25
1148.300                    8700.5
1148.400                    8694.25
1148.500                    8773
1148.600                    8828.75
1148.700                    8898.25
1148.800                    8941.5
1148.900                    8784.25
1149.000                    8727.75
1149.100                    8882
1149.200                    8809.5
1149.300                    8942.25
1149.400                    8979.75
1149.500                    9004.5
1149.600                    8996
1149.700                    8997.25
1149.800                    9080.75
1149.900                    9118.5
1150.000                    9039.5
1150.100                    9081.25
1150.200                    9131.25
1150.300                    9143.25
1150.400                    8875.5
1150.500                    9077
1150.600                    9029.75
1150.700                    9068.5
1150.800                    9003.75
1150.900                    9030.25
1151.000                    8966.25
1151.100                    9009
1151.200                    9049.25
1151.300                    9027.25
1151.400                    8886
1151.500                    9036.5
1151.600                    8957.75
1151.700                    8882.75
1151.800                    8964.25
1151.900                    8851.75
1152.000                    8895
1152.100                    8958.5
1152.200                    8670
1152.300                    8696.5
1152.400                    8875.5
1152.500                    8831
1152.600                    8786
1152.700                    8646.5
1152.800                    8697.75
1152.900                    8684
1153.000                    8704.75
1153.100                    8747
1153.200                    8816
1153.300                    8919
1153.400                    8942.25
1153.500                    8882.25
1153.600                    9007.5
1153.700                    9053.5
1153.800                    9036
1153.900                    9081
1154.000                    9320.75
1154.100                    9350.5
1154.200                    9390.5
1154.300                    9627.5
1154.400                    9737.5
1154.500                    9781
1154.600                    9881
1154.700                    9832.75
1154.800                    9819.75
1154.900                    9989.5
1155.000                   10008.2
1155.100                   10063.5
1155.200                    9943
1155.300                    9832.5
1155.400                    9995.25
1155.500                    9713.5
1155.600                    9740.5
1155.700                    9723
1155.800                    9551
1155.900                    9630.25
1156.000                    9500.75
1156.100                    9318.5
1156.200                    9246.25
1156.300                    9232.75
1156.400                    9128.75
1156.500                    8952.5
1156.600                    8924.5
1156.700                    8682.5
1156.800                    8699.25
1156.900                    8680.25
1157.000                    8610
1157.100                    8621.25
1157.200                    8439.25
1157.300                    8393.25
1157.400                    8371.25
1157.500                    8272.5
1157.600                    8325
1157.700                    8232
1157.800                    8285.75
1157.900                    8214.75
1158.000                    8205.5
1158.100                    8244
1158.200                    8059.25
1158.300                    8098
1158.400                    8187.25
1158.500                    8161
1158.600                    8134

File: XPS--7_C1s.txt
# Transition                      C 1s
# Notes
# Creation Comment
# Energy Mode                     KE
# Start Energy in eV              948.6
# End Energy in eV                978.6
# Energy Step in eV               0.1
# Number Of Sweeps                10
# Dwell Time per Sweep in s       0.3
# Analyser Mode                   CAE
# Pass Energy in eV/Retard Ratio  25
# Magnification                   high
# Divide Voltages By 10           off
# Excitation Source               Mg Ka 1253.6 eV normal
# Excitation Energy in eV         1253.6
# Analyser Workfunction in eV     4.5
# Entrance Slit                   6 x 12 mm
# Exit Slit                       5 x 11 mm
#
#
# Kinetic Energy in eV         Counts
# --------------------         ------
948.600                     4882.5
948.800                     4787
949.000                     4780.75
949.200                     4737.75
949.400                     4727.5
949.600                     4700.5
949.800                     4632.25
950.000                     4641.25
950.200                     4742.5
950.400                     4733.5
950.600                     4826.25
950.800                     4608
951.000                     4696.75
951.200                     4638.25
951.400                     4698.75
951.600                     4803
951.800                     4654.25
952.000                     4651.75
952.200                     4695.75
952.400                     4551.75
952.600                     4582.25
952.800                     4727.75
953.000                     4662
953.200                     4572
953.400                     4658.75
953.600                     4615.25
953.800                     4596.25
954.000                     4570.5
954.200                     4642.75
954.400                     4704
954.600                     4670.25
954.800                     4806.25
955.000                     4698.75
955.200                     4853.25
955.400                     4761
955.600                     4822.5
955.800                     4808
956.000                     4743.5
956.200                     4772.75
956.400                     4818.25
956.600                     4752
956.800                     4849.5
957.000                     4870.25
957.200                     4762
957.400                     4954
957.600                     4940
957.800                     5082.25
958.000                     5153
958.200                     5181
958.400                     5529.5
958.600                     5668
958.800                     5987.75
959.000                     6480
959.200                     6848.25
959.400                     7196.75
959.600                     7480.75
959.800                     7720
960.000                     7735
960.200                     7561.75
960.400                     7460
960.600                     7141.75
960.800                     6990
961.000                     6579
961.200                     6162.5
961.400                     5872.25
961.600                     5533
961.800                     5270.75
962.000                     5097
962.200                     4950.5
962.400                     4804.5
962.600                     4917.25
962.800                     4808.5
963.000                     4885.75
963.200                     4744.75
963.400                     4725
963.600                     4744
963.800                     4600.5
964.000                     4621.25
964.200                     4710
964.400                     4606.75
964.600                     4472
964.800                     4671.25
965.000                     4655.75
965.200                     4653.5
965.400                     4654.5
965.600                     4602.25
965.800                     4717.75
966.000                     4734.25
966.200                     4675.75
966.400                     4739.75
966.600                     4758.5
966.800                     4750.25
967.000                     4876
967.200                     4954.25
967.400                     5067.25
967.600                     5281.25
967.800                     5193
968.000                     5267.75
968.200                     5274.5
968.400                     5252
968.600                     5242.25
968.800                     5099
969.000                     4782.5
969.200                     4840.75
969.400                     4712.75
969.600                     4654.5
969.800                     4626.25
970.000                     4651.25
970.200                     4528.25
970.400                     4500.25
970.600                     4455.5
970.800                     4506.5
971.000                     4415.75
971.200                     4444.5
971.400                     4345.75
971.600                     4330.25
971.800                     4373.75
972.000                     4209.5
972.200                     4349.25
972.400                     4248.75
972.600                     4314
972.800                     4184.25
973.000                     4328.5
973.200                     4272.25
973.400                     4377.75
973.600                     4327.25
973.800                     4232.75
974.000                     4249.75
974.200                     4216.5
974.400                     4265.5
974.600                     4259.25
974.800                     4265
975.000                     4300.25
975.200                     4255
975.400                     4337.75
975.600                     4412.5
975.800                     4350.25
976.000                     4301.75
976.200                     4307.5
976.400                     4430.25
976.600                     4402.5
976.800                     4297.75
977.000                     4431
977.200                     4296.25
977.400                     4351
977.600                     4329
977.800                     4331.75
978.000                     4334.75
978.200                     4432.25
978.400                     4384
978.600                     4433